TrialType,Lag,Image,T1PA,T2PA,PicFolder,Picture,FullPathName,FilePath,trials.thisRepN,trials.thisTrialN,trials.thisN,trials.thisIndex,text.started,text.stopped,End_Instructions.keys,End_Instructions.rt,End_Instructions.started,End_Instructions.stopped,MemTest.started,MemTest.stopped,MemResponse.keys,MemResponse.rt,MemResponse.started,MemResponse.stopped,Display.started,Display.stopped,participant,session,date,expName,psychopyVersion,frameRate,
,,,,,,,,,,,,,9.046859299996868,None,space,1.1758115999982692,9.046859299996868,None,,,,,,,,,t,001,2022-06-21_16h58.51.076,MemoryStudy,2022.1.4,59.94334155305017,
Mem,99,bulldozer.jpg,Z,Z,JPG\,bulldozer,C:\\Users\\Psychology\\Documents\\ABExperiment\\MemoryStudy\\resources\\JPG\\bulldozer.jpg,C:\\Users\\Psychology\\Documents\\ABExperiment\\MemoryStudy\\resources\\JPG\\,0,0,0,467,,,,,,,10.517517000000225,None,1,1.1849238999857334,10.517517000000225,None,10.517517000000225,None,t,001,2022-06-21_16h58.51.076,MemoryStudy,2022.1.4,59.94334155305017,
Mem,5,hockeypuck.jpg,P,P,JPG\,hockeypuck,C:\\Users\\Psychology\\Documents\\ABExperiment\\MemoryStudy\\resources\\JPG\\hockeypuck.jpg,C:\\Users\\Psychology\\Documents\\ABExperiment\\MemoryStudy\\resources\\JPG\\,0,1,1,157,,,,,,,11.79128839999612,None,1,0.42275480000535026,11.79128839999612,None,11.79128839999612,None,t,001,2022-06-21_16h58.51.076,MemoryStudy,2022.1.4,59.94334155305017,
Mem,1,barnowl.jpg,P,P,JPG\,barnowl,C:\\Users\\Psychology\\Documents\\ABExperiment\\MemoryStudy\\resources\\JPG\\barnowl.jpg,C:\\Users\\Psychology\\Documents\\ABExperiment\\MemoryStudy\\resources\\JPG\\,0,2,2,33,,,,,,,12.336303399992175,None,1,0.46979540000029374,12.336303399992175,None,12.336303399992175,None,t,001,2022-06-21_16h58.51.076,MemoryStudy,2022.1.4,59.94334155305017,
Mem,99,campfire.jpg,Z,Z,JPG\,campfire,C:\\Users\\Psychology\\Documents\\ABExperiment\\MemoryStudy\\resources\\JPG\\campfire.jpg,C:\\Users\\Psychology\\Documents\\ABExperiment\\MemoryStudy\\resources\\JPG\\,0,3,3,494,,,,,,,12.923382499997388,None,1,0.4501715000078548,12.923382499997388,None,12.923382499997388,None,t,001,2022-06-21_16h58.51.076,MemoryStudy,2022.1.4,59.94334155305017,
Mem,1,squirrel.jpg,P,P,JPG\,squirrel,C:\\Users\\Psychology\\Documents\\ABExperiment\\MemoryStudy\\resources\\JPG\\squirrel.jpg,C:\\Users\\Psychology\\Documents\\ABExperiment\\MemoryStudy\\resources\\JPG\\,0,4,4,5,,,,,,,13.402653899989673,None,1,0.5555813999962993,13.402653899989673,None,13.402653899989673,None,t,001,2022-06-21_16h58.51.076,MemoryStudy,2022.1.4,59.94334155305017,
Mem,99,sturgeon.jpg,Z,Z,JPG\,sturgeon,C:\\Users\\Psychology\\Documents\\ABExperiment\\MemoryStudy\\resources\\JPG\\sturgeon.jpg,C:\\Users\\Psychology\\Documents\\ABExperiment\\MemoryStudy\\resources\\JPG\\,0,5,5,308,,,,,,,14.05495510000037,None,1,0.47948490000271704,14.05495510000037,None,14.05495510000037,None,t,001,2022-06-21_16h58.51.076,MemoryStudy,2022.1.4,59.94334155305017,
Mem,99,spotlight.jpg,Z,Z,JPG\,spotlight,C:\\Users\\Psychology\\Documents\\ABExperiment\\MemoryStudy\\resources\\JPG\\spotlight.jpg,C:\\Users\\Psychology\\Documents\\ABExperiment\\MemoryStudy\\resources\\JPG\\,0,6,6,553,,,,,,,14.645361999995657,None,1,0.46451819999492727,14.645361999995657,None,14.645361999995657,None,t,001,2022-06-21_16h58.51.076,MemoryStudy,2022.1.4,59.94334155305017,
Mem,1,snowboard.jpg,P,P,JPG\,snowboard,C:\\Users\\Psychology\\Documents\\ABExperiment\\MemoryStudy\\resources\\JPG\\snowboard.jpg,C:\\Users\\Psychology\\Documents\\ABExperiment\\MemoryStudy\\resources\\JPG\\,0,7,7,49,,,,,,,15.138524999987567,None,1,0.5952649999962887,15.138524999987567,None,15.138524999987567,None,t,001,2022-06-21_16h58.51.076,MemoryStudy,2022.1.4,59.94334155305017,
Mem,99,microscope.jpg,Z,Z,JPG\,microscope,C:\\Users\\Psychology\\Documents\\ABExperiment\\MemoryStudy\\resources\\JPG\\microscope.jpg,C:\\Users\\Psychology\\Documents\\ABExperiment\\MemoryStudy\\resources\\JPG\\,0,8,8,245,,,,,,,15.869925799997873,None,1,0.47199479999835603,15.869925799997873,None,15.869925799997873,None,t,001,2022-06-21_16h58.51.076,MemoryStudy,2022.1.4,59.94334155305017,
Mem,5,microwave.jpg,P,P,JPG\,microwave,C:\\Users\\Psychology\\Documents\\ABExperiment\\MemoryStudy\\resources\\JPG\\microwave.jpg,C:\\Users\\Psychology\\Documents\\ABExperiment\\MemoryStudy\\resources\\JPG\\,0,9,9,183,,,,,,,16.367738799992367,None,1,0.5499390999902971,16.367738799992367,None,16.367738799992367,None,t,001,2022-06-21_16h58.51.076,MemoryStudy,2022.1.4,59.94334155305017,
Mem,1,ladybug03.jpg,P,P,JPG\,ladybug03,C:\\Users\\Psychology\\Documents\\ABExperiment\\MemoryStudy\\resources\\JPG\\ladybug03.jpg,C:\\Users\\Psychology\\Documents\\ABExperiment\\MemoryStudy\\resources\\JPG\\,0,10,10,65,,,,,,,16.95145889998821,None,1,0.5259616999974241,16.95145889998821,None,16.95145889998821,None,t,001,2022-06-21_16h58.51.076,MemoryStudy,2022.1.4,59.94334155305017,
Mem,99,dandelion.jpg,Z,Z,JPG\,dandelion,C:\\Users\\Psychology\\Documents\\ABExperiment\\MemoryStudy\\resources\\JPG\\dandelion.jpg,C:\\Users\\Psychology\\Documents\\ABExperiment\\MemoryStudy\\resources\\JPG\\,0,11,11,219,,,,,,,17.502107099993736,None,1,0.5600039999990258,17.502107099993736,None,17.502107099993736,None,t,001,2022-06-21_16h58.51.076,MemoryStudy,2022.1.4,59.94334155305017,
Mem,99,riverotter.jpg,Z,Z,JPG\,riverotter,C:\\Users\\Psychology\\Documents\\ABExperiment\\MemoryStudy\\resources\\JPG\\riverotter.jpg,C:\\Users\\Psychology\\Documents\\ABExperiment\\MemoryStudy\\resources\\JPG\\,0,12,12,326,,,,,,,18.164618299997528,None,1,0.5048227999941446,18.164618299997528,None,18.164618299997528,None,t,001,2022-06-21_16h58.51.076,MemoryStudy,2022.1.4,59.94334155305017,
Mem,1,hulahoop.jpg,P,P,JPG\,hulahoop,C:\\Users\\Psychology\\Documents\\ABExperiment\\MemoryStudy\\resources\\JPG\\hulahoop.jpg,C:\\Users\\Psychology\\Documents\\ABExperiment\\MemoryStudy\\resources\\JPG\\,0,13,13,64,,,,,,,18.707005699994625,None,1,0.571062000002712,18.707005699994625,None,18.707005699994625,None,t,001,2022-06-21_16h58.51.076,MemoryStudy,2022.1.4,59.94334155305017,
Mem,1,apron.jpg,P,P,JPG\,apron,C:\\Users\\Psychology\\Documents\\ABExperiment\\MemoryStudy\\resources\\JPG\\apron.jpg,C:\\Users\\Psychology\\Documents\\ABExperiment\\MemoryStudy\\resources\\JPG\\,0,14,14,32,,,,,,,19.302768800000194,None,1,0.5513165000011213,19.302768800000194,None,19.302768800000194,None,t,001,2022-06-21_16h58.51.076,MemoryStudy,2022.1.4,59.94334155305017,
Mem,99,trafficlight.jpg,Z,Z,JPG\,trafficlight,C:\\Users\\Psychology\\Documents\\ABExperiment\\MemoryStudy\\resources\\JPG\\trafficlight.jpg,C:\\Users\\Psychology\\Documents\\ABExperiment\\MemoryStudy\\resources\\JPG\\,0,15,15,331,,,,,,,20.00892879998719,None,1,0.45407170000544284,20.00892879998719,None,20.00892879998719,None,t,001,2022-06-21_16h58.51.076,MemoryStudy,2022.1.4,59.94334155305017,
Mem,99,rice.jpg,Z,Z,JPG\,rice,C:\\Users\\Psychology\\Documents\\ABExperiment\\MemoryStudy\\resources\\JPG\\rice.jpg,C:\\Users\\Psychology\\Documents\\ABExperiment\\MemoryStudy\\resources\\JPG\\,0,16,16,279,,,,,,,20.585895500000333,None,1,0.4276754000020446,20.585895500000333,None,20.585895500000333,None,t,001,2022-06-21_16h58.51.076,MemoryStudy,2022.1.4,59.94334155305017,
Mem,99,pickaxe02.jpg,Z,Z,JPG\,pickaxe02,C:\\Users\\Psychology\\Documents\\ABExperiment\\MemoryStudy\\resources\\JPG\\pickaxe02.jpg,C:\\Users\\Psychology\\Documents\\ABExperiment\\MemoryStudy\\resources\\JPG\\,0,17,17,481,,,,,,,21.146232799990685,None,1,0.47525790000509005,21.146232799990685,None,21.146232799990685,None,t,001,2022-06-21_16h58.51.076,MemoryStudy,2022.1.4,59.94334155305017,
Mem,1,crab01.jpg,P,P,JPG\,crab01,C:\\Users\\Psychology\\Documents\\ABExperiment\\MemoryStudy\\resources\\JPG\\crab01.jpg,C:\\Users\\Psychology\\Documents\\ABExperiment\\MemoryStudy\\resources\\JPG\\,0,18,18,37,,,,,,,21.652415899996413,None,1,0.4891576000081841,21.652415899996413,None,21.652415899996413,None,t,001,2022-06-21_16h58.51.076,MemoryStudy,2022.1.4,59.94334155305017,
Mem,1,candycane01a.jpg,P,P,JPG\,candycane01a,C:\\Users\\Psychology\\Documents\\ABExperiment\\MemoryStudy\\resources\\JPG\\candycane01a.jpg,C:\\Users\\Psychology\\Documents\\ABExperiment\\MemoryStudy\\resources\\JPG\\,0,19,19,9,,,,,,,22.169334599995636,None,1,0.5563028999895323,22.169334599995636,None,22.169334599995636,None,t,001,2022-06-21_16h58.51.076,MemoryStudy,2022.1.4,59.94334155305017,
