TrialType,Lag,Image,T1PA,T2PA,PicFolder,Picture,FullPathName,FilePath,trials.thisRepN,trials.thisTrialN,trials.thisN,trials.thisIndex,text.started,text.stopped,End_Instructions.keys,End_Instructions.rt,End_Instructions.started,End_Instructions.stopped,MemTest.started,MemTest.stopped,MemResponse.keys,MemResponse.rt,MemResponse.started,MemResponse.stopped,Display.started,Display.stopped,participant,session,date,expName,psychopyVersion,frameRate,
,,,,,,,,,,,,,9.101914800005034,None,space,0.8967436000093585,9.101914800005034,None,,,,,,,,,t,001,2022-06-21_17h47.38.784,MemoryStudy,2022.1.4,59.302378674663586,
Mem,1,giraffe.jpg,P,P,JPG\,giraffe,C:\\Users\\Psychology\\Documents\\ABExperiment\\MemoryStudy\\resources\\JPG\\giraffe.jpg,C:\\Users\\Psychology\\Documents\\ABExperiment\\MemoryStudy\\resources\\JPG\\,0,0,0,0,,,,,,,10.217781300001661,None,1,0.684618599989335,10.217781300001661,None,10.217781300001661,None,t,001,2022-06-21_17h47.38.784,MemoryStudy,2022.1.4,59.302378674663586,
Mem,1,greathornowl.jpg,P,P,JPG\,greathornowl,C:\\Users\\Psychology\\Documents\\ABExperiment\\MemoryStudy\\resources\\JPG\\greathornowl.jpg,C:\\Users\\Psychology\\Documents\\ABExperiment\\MemoryStudy\\resources\\JPG\\,0,1,1,1,,,,,,,10.928832000005059,None,1,0.3574823999952059,10.928832000005059,None,10.928832000005059,None,t,001,2022-06-21_17h47.38.784,MemoryStudy,2022.1.4,59.302378674663586,
Mem,1,candle08b.jpg,P,P,JPG\,candle08b,C:\\Users\\Psychology\\Documents\\ABExperiment\\MemoryStudy\\resources\\JPG\\candle08b.jpg,C:\\Users\\Psychology\\Documents\\ABExperiment\\MemoryStudy\\resources\\JPG\\,0,2,2,2,,,,,,,11.426415500012808,None,1,0.23605639999732375,11.426415500012808,None,11.426415500012808,None,t,001,2022-06-21_17h47.38.784,MemoryStudy,2022.1.4,59.302378674663586,
Mem,1,horse.jpg,P,P,JPG\,horse,C:\\Users\\Psychology\\Documents\\ABExperiment\\MemoryStudy\\resources\\JPG\\horse.jpg,C:\\Users\\Psychology\\Documents\\ABExperiment\\MemoryStudy\\resources\\JPG\\,0,3,3,3,,,,,,,11.75382380001247,None,1,0.2679562999983318,11.75382380001247,None,11.75382380001247,None,t,001,2022-06-21_17h47.38.784,MemoryStudy,2022.1.4,59.302378674663586,
Mem,1,snowman.jpg,P,P,JPG\,snowman,C:\\Users\\Psychology\\Documents\\ABExperiment\\MemoryStudy\\resources\\JPG\\snowman.jpg,C:\\Users\\Psychology\\Documents\\ABExperiment\\MemoryStudy\\resources\\JPG\\,0,4,4,4,,,,,,,12.044510899999295,None,1,0.32970400000340305,12.044510899999295,None,12.044510899999295,None,t,001,2022-06-21_17h47.38.784,MemoryStudy,2022.1.4,59.302378674663586,
Mem,1,squirrel.jpg,P,P,JPG\,squirrel,C:\\Users\\Psychology\\Documents\\ABExperiment\\MemoryStudy\\resources\\JPG\\squirrel.jpg,C:\\Users\\Psychology\\Documents\\ABExperiment\\MemoryStudy\\resources\\JPG\\,0,5,5,5,,,,,,,12.392783800009056,None,1,0.3414917000045534,12.392783800009056,None,12.392783800009056,None,t,001,2022-06-21_17h47.38.784,MemoryStudy,2022.1.4,59.302378674663586,
Mem,1,firtree.jpg,P,P,JPG\,firtree,C:\\Users\\Psychology\\Documents\\ABExperiment\\MemoryStudy\\resources\\JPG\\firtree.jpg,C:\\Users\\Psychology\\Documents\\ABExperiment\\MemoryStudy\\resources\\JPG\\,0,6,6,6,,,,,,,12.872780600009719,None,1,0.24571329999889713,12.872780600009719,None,12.872780600009719,None,t,001,2022-06-21_17h47.38.784,MemoryStudy,2022.1.4,59.302378674663586,
Mem,1,bowlingball.jpg,P,P,JPG\,bowlingball,C:\\Users\\Psychology\\Documents\\ABExperiment\\MemoryStudy\\resources\\JPG\\bowlingball.jpg,C:\\Users\\Psychology\\Documents\\ABExperiment\\MemoryStudy\\resources\\JPG\\,0,7,7,7,,,,,,,13.148778300004778,None,1,0.3376006999897072,13.148778300004778,None,13.148778300004778,None,t,001,2022-06-21_17h47.38.784,MemoryStudy,2022.1.4,59.302378674663586,
Mem,1,bowlingpin.jpg,P,P,JPG\,bowlingpin,C:\\Users\\Psychology\\Documents\\ABExperiment\\MemoryStudy\\resources\\JPG\\bowlingpin.jpg,C:\\Users\\Psychology\\Documents\\ABExperiment\\MemoryStudy\\resources\\JPG\\,0,8,8,8,,,,,,,13.510452900009113,None,1,0.319786899999599,13.510452900009113,None,13.510452900009113,None,t,001,2022-06-21_17h47.38.784,MemoryStudy,2022.1.4,59.302378674663586,
Mem,1,candycane01a.jpg,P,P,JPG\,candycane01a,C:\\Users\\Psychology\\Documents\\ABExperiment\\MemoryStudy\\resources\\JPG\\candycane01a.jpg,C:\\Users\\Psychology\\Documents\\ABExperiment\\MemoryStudy\\resources\\JPG\\,0,9,9,9,,,,,,,13.860729000007268,None,1,0.3050370999990264,13.860729000007268,None,13.860729000007268,None,t,001,2022-06-21_17h47.38.784,MemoryStudy,2022.1.4,59.302378674663586,
Mem,1,dolphin01.jpg,P,P,JPG\,dolphin01,C:\\Users\\Psychology\\Documents\\ABExperiment\\MemoryStudy\\resources\\JPG\\dolphin01.jpg,C:\\Users\\Psychology\\Documents\\ABExperiment\\MemoryStudy\\resources\\JPG\\,0,10,10,10,,,,,,,14.194567900005495,None,1,0.31589650000387337,14.194567900005495,None,14.194567900005495,None,t,001,2022-06-21_17h47.38.784,MemoryStudy,2022.1.4,59.302378674663586,
Mem,1,dromedary.jpg,P,P,JPG\,dromedary,C:\\Users\\Psychology\\Documents\\ABExperiment\\MemoryStudy\\resources\\JPG\\dromedary.jpg,C:\\Users\\Psychology\\Documents\\ABExperiment\\MemoryStudy\\resources\\JPG\\,0,11,11,11,,,,,,,14.528073699999368,None,1,0.2311145999992732,14.528073699999368,None,14.528073699999368,None,t,001,2022-06-21_17h47.38.784,MemoryStudy,2022.1.4,59.302378674663586,
Mem,1,football.jpg,P,P,JPG\,football,C:\\Users\\Psychology\\Documents\\ABExperiment\\MemoryStudy\\resources\\JPG\\football.jpg,C:\\Users\\Psychology\\Documents\\ABExperiment\\MemoryStudy\\resources\\JPG\\,0,12,12,12,,,,,,,14.778610500012292,None,1,0.20352070000080857,14.778610500012292,None,14.778610500012292,None,t,001,2022-06-21_17h47.38.784,MemoryStudy,2022.1.4,59.302378674663586,
Mem,1,golfball.jpg,P,P,JPG\,golfball,C:\\Users\\Psychology\\Documents\\ABExperiment\\MemoryStudy\\resources\\JPG\\golfball.jpg,C:\\Users\\Psychology\\Documents\\ABExperiment\\MemoryStudy\\resources\\JPG\\,0,13,13,13,,,,,,,15.016426300004241,None,1,0.17371540000021923,15.016426300004241,None,15.016426300004241,None,t,001,2022-06-21_17h47.38.784,MemoryStudy,2022.1.4,59.302378674663586,
Mem,1,guitarcase.jpg,P,P,JPG\,guitarcase,C:\\Users\\Psychology\\Documents\\ABExperiment\\MemoryStudy\\resources\\JPG\\guitarcase.jpg,C:\\Users\\Psychology\\Documents\\ABExperiment\\MemoryStudy\\resources\\JPG\\,0,14,14,14,,,,,,,15.217671000005794,None,1,0.20542220000061207,15.217671000005794,None,15.217671000005794,None,t,001,2022-06-21_17h47.38.784,MemoryStudy,2022.1.4,59.302378674663586,
Mem,1,jellybean.jpg,P,P,JPG\,jellybean,C:\\Users\\Psychology\\Documents\\ABExperiment\\MemoryStudy\\resources\\JPG\\jellybean.jpg,C:\\Users\\Psychology\\Documents\\ABExperiment\\MemoryStudy\\resources\\JPG\\,0,15,15,15,,,,,,,15.446921100010513,None,1,0.20003120000183117,15.446921100010513,None,15.446921100010513,None,t,001,2022-06-21_17h47.38.784,MemoryStudy,2022.1.4,59.302378674663586,
Mem,1,kangaroo.jpg,P,P,JPG\,kangaroo,C:\\Users\\Psychology\\Documents\\ABExperiment\\MemoryStudy\\resources\\JPG\\kangaroo.jpg,C:\\Users\\Psychology\\Documents\\ABExperiment\\MemoryStudy\\resources\\JPG\\,0,16,16,16,,,,,,,15.680549600001541,None,1,0.17444309999700636,15.680549600001541,None,15.680549600001541,None,t,001,2022-06-21_17h47.38.784,MemoryStudy,2022.1.4,59.302378674663586,
Mem,1,kite.jpg,P,P,JPG\,kite,C:\\Users\\Psychology\\Documents\\ABExperiment\\MemoryStudy\\resources\\JPG\\kite.jpg,C:\\Users\\Psychology\\Documents\\ABExperiment\\MemoryStudy\\resources\\JPG\\,0,17,17,17,,,,,,,15.88104450001265,None,1,0.19694569999410305,15.88104450001265,None,15.88104450001265,None,t,001,2022-06-21_17h47.38.784,MemoryStudy,2022.1.4,59.302378674663586,
Mem,1,lightswitch01.jpg,P,P,JPG\,lightswitch01,C:\\Users\\Psychology\\Documents\\ABExperiment\\MemoryStudy\\resources\\JPG\\lightswitch01.jpg,C:\\Users\\Psychology\\Documents\\ABExperiment\\MemoryStudy\\resources\\JPG\\,0,18,18,18,,,,,,,16.102226700008032,None,1,0.17574159998912364,16.102226700008032,None,16.102226700008032,None,t,001,2022-06-21_17h47.38.784,MemoryStudy,2022.1.4,59.302378674663586,
Mem,1,locker.jpg,P,P,JPG\,locker,C:\\Users\\Psychology\\Documents\\ABExperiment\\MemoryStudy\\resources\\JPG\\locker.jpg,C:\\Users\\Psychology\\Documents\\ABExperiment\\MemoryStudy\\resources\\JPG\\,0,19,19,19,,,,,,,16.298331900004996,None,1,0.1875441000011051,16.298331900004996,None,16.298331900004996,None,t,001,2022-06-21_17h47.38.784,MemoryStudy,2022.1.4,59.302378674663586,
Mem,1,mailbox01.jpg,P,P,JPG\,mailbox01,C:\\Users\\Psychology\\Documents\\ABExperiment\\MemoryStudy\\resources\\JPG\\mailbox01.jpg,C:\\Users\\Psychology\\Documents\\ABExperiment\\MemoryStudy\\resources\\JPG\\,0,20,20,20,,,,,,,16.60374460001185,None,1,0.08225820001098327,16.60374460001185,None,16.60374460001185,None,t,001,2022-06-21_17h47.38.784,MemoryStudy,2022.1.4,59.302378674663586,
Mem,1,mailbox02.jpg,P,P,JPG\,mailbox02,C:\\Users\\Psychology\\Documents\\ABExperiment\\MemoryStudy\\resources\\JPG\\mailbox02.jpg,C:\\Users\\Psychology\\Documents\\ABExperiment\\MemoryStudy\\resources\\JPG\\,0,21,21,21,,,,,,,16.71954680001363,None,1,0.16715100000146776,16.71954680001363,None,16.71954680001363,None,t,001,2022-06-21_17h47.38.784,MemoryStudy,2022.1.4,59.302378674663586,
Mem,1,mattress.jpg,P,P,JPG\,mattress,C:\\Users\\Psychology\\Documents\\ABExperiment\\MemoryStudy\\resources\\JPG\\mattress.jpg,C:\\Users\\Psychology\\Documents\\ABExperiment\\MemoryStudy\\resources\\JPG\\,0,22,22,22,,,,,,,16.92444470000919,None,1,0.16942639999615494,16.92444470000919,None,16.92444470000919,None,t,001,2022-06-21_17h47.38.784,MemoryStudy,2022.1.4,59.302378674663586,
Mem,1,pumpkin.jpg,P,P,JPG\,pumpkin,C:\\Users\\Psychology\\Documents\\ABExperiment\\MemoryStudy\\resources\\JPG\\pumpkin.jpg,C:\\Users\\Psychology\\Documents\\ABExperiment\\MemoryStudy\\resources\\JPG\\,0,23,23,23,,,,,,,17.116294100007508,None,1,0.18564989999867976,17.116294100007508,None,17.116294100007508,None,t,001,2022-06-21_17h47.38.784,MemoryStudy,2022.1.4,59.302378674663586,
Mem,1,schoolbus.jpg,P,P,JPG\,schoolbus,C:\\Users\\Psychology\\Documents\\ABExperiment\\MemoryStudy\\resources\\JPG\\schoolbus.jpg,C:\\Users\\Psychology\\Documents\\ABExperiment\\MemoryStudy\\resources\\JPG\\,0,24,24,24,,,,,,,17.338125800000853,None,1,0.17172199999913573,17.338125800000853,None,17.338125800000853,None,t,001,2022-06-21_17h47.38.784,MemoryStudy,2022.1.4,59.302378674663586,
Mem,1,skateboard.jpg,P,P,JPG\,skateboard,C:\\Users\\Psychology\\Documents\\ABExperiment\\MemoryStudy\\resources\\JPG\\skateboard.jpg,C:\\Users\\Psychology\\Documents\\ABExperiment\\MemoryStudy\\resources\\JPG\\,0,25,25,25,,,,,,,17.536266300012358,None,1,0.17347110000264365,17.536266300012358,None,17.536266300012358,None,t,001,2022-06-21_17h47.38.784,MemoryStudy,2022.1.4,59.302378674663586,
Mem,1,soccerball.jpg,P,P,JPG\,soccerball,C:\\Users\\Psychology\\Documents\\ABExperiment\\MemoryStudy\\resources\\JPG\\soccerball.jpg,C:\\Users\\Psychology\\Documents\\ABExperiment\\MemoryStudy\\resources\\JPG\\,0,26,26,26,,,,,,,17.73636140000599,None,1,0.190235499991104,17.73636140000599,None,17.73636140000599,None,t,001,2022-06-21_17h47.38.784,MemoryStudy,2022.1.4,59.302378674663586,
Mem,1,wheelchair.jpg,P,P,JPG\,wheelchair,C:\\Users\\Psychology\\Documents\\ABExperiment\\MemoryStudy\\resources\\JPG\\wheelchair.jpg,C:\\Users\\Psychology\\Documents\\ABExperiment\\MemoryStudy\\resources\\JPG\\,0,27,27,27,,,,,,,17.953396000011708,None,1,0.1801700000069104,17.953396000011708,None,17.953396000011708,None,t,001,2022-06-21_17h47.38.784,MemoryStudy,2022.1.4,59.302378674663586,
Mem,1,zebra.jpg,P,P,JPG\,zebra,C:\\Users\\Psychology\\Documents\\ABExperiment\\MemoryStudy\\resources\\JPG\\zebra.jpg,C:\\Users\\Psychology\\Documents\\ABExperiment\\MemoryStudy\\resources\\JPG\\,0,28,28,28,,,,,,,18.17541130000609,None,1,0.16622579999966547,18.17541130000609,None,18.17541130000609,None,t,001,2022-06-21_17h47.38.784,MemoryStudy,2022.1.4,59.302378674663586,
Mem,1,pooltable.jpg,P,P,JPG\,pooltable,C:\\Users\\Psychology\\Documents\\ABExperiment\\MemoryStudy\\resources\\JPG\\pooltable.jpg,C:\\Users\\Psychology\\Documents\\ABExperiment\\MemoryStudy\\resources\\JPG\\,0,29,29,29,,,,,,,18.366041200002655,None,1,0.167631700009224,18.366041200002655,None,18.366041200002655,None,t,001,2022-06-21_17h47.38.784,MemoryStudy,2022.1.4,59.302378674663586,
Mem,1,swing.jpg,P,P,JPG\,swing,C:\\Users\\Psychology\\Documents\\ABExperiment\\MemoryStudy\\resources\\JPG\\swing.jpg,C:\\Users\\Psychology\\Documents\\ABExperiment\\MemoryStudy\\resources\\JPG\\,0,30,30,30,,,,,,,18.566018400000758,None,1,0.16767089998757,18.566018400000758,None,18.566018400000758,None,t,001,2022-06-21_17h47.38.784,MemoryStudy,2022.1.4,59.302378674663586,
Mem,1,africanelephant.jpg,P,P,JPG\,africanelephant,C:\\Users\\Psychology\\Documents\\ABExperiment\\MemoryStudy\\resources\\JPG\\africanelephant.jpg,C:\\Users\\Psychology\\Documents\\ABExperiment\\MemoryStudy\\resources\\JPG\\,0,31,31,31,,,,,,,18.76626170000236,None,1,0.1594695999956457,18.76626170000236,None,18.76626170000236,None,t,001,2022-06-21_17h47.38.784,MemoryStudy,2022.1.4,59.302378674663586,
Mem,1,apron.jpg,P,P,JPG\,apron,C:\\Users\\Psychology\\Documents\\ABExperiment\\MemoryStudy\\resources\\JPG\\apron.jpg,C:\\Users\\Psychology\\Documents\\ABExperiment\\MemoryStudy\\resources\\JPG\\,0,32,32,32,,,,,,,18.950243500003126,None,1,0.1753781000006711,18.950243500003126,None,18.950243500003126,None,t,001,2022-06-21_17h47.38.784,MemoryStudy,2022.1.4,59.302378674663586,
Mem,1,barnowl.jpg,P,P,JPG\,barnowl,C:\\Users\\Psychology\\Documents\\ABExperiment\\MemoryStudy\\resources\\JPG\\barnowl.jpg,C:\\Users\\Psychology\\Documents\\ABExperiment\\MemoryStudy\\resources\\JPG\\,0,33,33,33,,,,,,,19.229821400003857,None,1,0.08813809999264777,19.229821400003857,None,19.229821400003857,None,t,001,2022-06-21_17h47.38.784,MemoryStudy,2022.1.4,59.302378674663586,
Mem,1,basketball01.jpg,P,P,JPG\,basketball01,C:\\Users\\Psychology\\Documents\\ABExperiment\\MemoryStudy\\resources\\JPG\\basketball01.jpg,C:\\Users\\Psychology\\Documents\\ABExperiment\\MemoryStudy\\resources\\JPG\\,0,34,34,34,,,,,,,19.352731800012407,None,1,0.17316849999770056,19.352731800012407,None,19.352731800012407,None,t,001,2022-06-21_17h47.38.784,MemoryStudy,2022.1.4,59.302378674663586,
Mem,1,bat.jpg,P,P,JPG\,bat,C:\\Users\\Psychology\\Documents\\ABExperiment\\MemoryStudy\\resources\\JPG\\bat.jpg,C:\\Users\\Psychology\\Documents\\ABExperiment\\MemoryStudy\\resources\\JPG\\,0,35,35,35,,,,,,,19.55240140001115,None,1,0.18139810000138823,19.55240140001115,None,19.55240140001115,None,t,001,2022-06-21_17h47.38.784,MemoryStudy,2022.1.4,59.302378674663586,
Mem,1,cloud.jpg,P,P,JPG\,cloud,C:\\Users\\Psychology\\Documents\\ABExperiment\\MemoryStudy\\resources\\JPG\\cloud.jpg,C:\\Users\\Psychology\\Documents\\ABExperiment\\MemoryStudy\\resources\\JPG\\,0,36,36,36,,,,,,,19.766767700013588,None,1,0.1670224999979837,19.766767700013588,None,19.766767700013588,None,t,001,2022-06-21_17h47.38.784,MemoryStudy,2022.1.4,59.302378674663586,
Mem,1,crab01.jpg,P,P,JPG\,crab01,C:\\Users\\Psychology\\Documents\\ABExperiment\\MemoryStudy\\resources\\JPG\\crab01.jpg,C:\\Users\\Psychology\\Documents\\ABExperiment\\MemoryStudy\\resources\\JPG\\,0,37,37,37,,,,,,,19.967012100009015,None,1,0.1748139999981504,19.967012100009015,None,19.967012100009015,None,t,001,2022-06-21_17h47.38.784,MemoryStudy,2022.1.4,59.302378674663586,
Mem,1,cupcake.jpg,P,P,JPG\,cupcake,C:\\Users\\Psychology\\Documents\\ABExperiment\\MemoryStudy\\resources\\JPG\\cupcake.jpg,C:\\Users\\Psychology\\Documents\\ABExperiment\\MemoryStudy\\resources\\JPG\\,0,38,38,38,,,,,,,20.168597500000033,None,1,0.17363039999327157,20.168597500000033,None,20.168597500000033,None,t,001,2022-06-21_17h47.38.784,MemoryStudy,2022.1.4,59.302378674663586,
Mem,1,donut.jpg,P,P,JPG\,donut,C:\\Users\\Psychology\\Documents\\ABExperiment\\MemoryStudy\\resources\\JPG\\donut.jpg,C:\\Users\\Psychology\\Documents\\ABExperiment\\MemoryStudy\\resources\\JPG\\,0,39,39,39,,,,,,,20.369365500009735,None,1,0.17292969999834895,20.369365500009735,None,20.369365500009735,None,t,001,2022-06-21_17h47.38.784,MemoryStudy,2022.1.4,59.302378674663586,
Mem,1,eiffeltower.jpg,P,P,JPG\,eiffeltower,C:\\Users\\Psychology\\Documents\\ABExperiment\\MemoryStudy\\resources\\JPG\\eiffeltower.jpg,C:\\Users\\Psychology\\Documents\\ABExperiment\\MemoryStudy\\resources\\JPG\\,0,40,40,40,,,,,,,20.569732500007376,None,1,0.18047410000872333,20.569732500007376,None,20.569732500007376,None,t,001,2022-06-21_17h47.38.784,MemoryStudy,2022.1.4,59.302378674663586,
Mem,1,exitsign.jpg,P,P,JPG\,exitsign,C:\\Users\\Psychology\\Documents\\ABExperiment\\MemoryStudy\\resources\\JPG\\exitsign.jpg,C:\\Users\\Psychology\\Documents\\ABExperiment\\MemoryStudy\\resources\\JPG\\,0,41,41,41,,,,,,,20.769846499999403,None,1,0.1802536000031978,20.769846499999403,None,20.769846499999403,None,t,001,2022-06-21_17h47.38.784,MemoryStudy,2022.1.4,59.302378674663586,
Mem,1,fortunecookie.jpg,P,P,JPG\,fortunecookie,C:\\Users\\Psychology\\Documents\\ABExperiment\\MemoryStudy\\resources\\JPG\\fortunecookie.jpg,C:\\Users\\Psychology\\Documents\\ABExperiment\\MemoryStudy\\resources\\JPG\\,0,42,42,42,,,,,,,20.970036900005653,None,1,0.18792360000952613,20.970036900005653,None,20.970036900005653,None,t,001,2022-06-21_17h47.38.784,MemoryStudy,2022.1.4,59.302378674663586,
Mem,1,harmonica.jpg,P,P,JPG\,harmonica,C:\\Users\\Psychology\\Documents\\ABExperiment\\MemoryStudy\\resources\\JPG\\harmonica.jpg,C:\\Users\\Psychology\\Documents\\ABExperiment\\MemoryStudy\\resources\\JPG\\,0,43,43,43,,,,,,,21.186907600000268,None,1,0.17108770000049844,21.186907600000268,None,21.186907600000268,None,t,001,2022-06-21_17h47.38.784,MemoryStudy,2022.1.4,59.302378674663586,
Mem,1,doghouse.jpg,P,P,JPG\,doghouse,C:\\Users\\Psychology\\Documents\\ABExperiment\\MemoryStudy\\resources\\JPG\\doghouse.jpg,C:\\Users\\Psychology\\Documents\\ABExperiment\\MemoryStudy\\resources\\JPG\\,0,44,44,44,,,,,,,21.387079800013453,None,1,0.17078200000105426,21.387079800013453,None,21.387079800013453,None,t,001,2022-06-21_17h47.38.784,MemoryStudy,2022.1.4,59.302378674663586,
Mem,1,ladder.jpg,P,P,JPG\,ladder,C:\\Users\\Psychology\\Documents\\ABExperiment\\MemoryStudy\\resources\\JPG\\ladder.jpg,C:\\Users\\Psychology\\Documents\\ABExperiment\\MemoryStudy\\resources\\JPG\\,0,45,45,45,,,,,,,21.58743240000331,None,1,0.18631899998581503,21.58743240000331,None,21.58743240000331,None,t,001,2022-06-21_17h47.38.784,MemoryStudy,2022.1.4,59.302378674663586,
Mem,1,lawnmower.jpg,P,P,JPG\,lawnmower,C:\\Users\\Psychology\\Documents\\ABExperiment\\MemoryStudy\\resources\\JPG\\lawnmower.jpg,C:\\Users\\Psychology\\Documents\\ABExperiment\\MemoryStudy\\resources\\JPG\\,0,46,46,46,,,,,,,21.804352900013328,None,1,0.17027299999608658,21.804352900013328,None,21.804352900013328,None,t,001,2022-06-21_17h47.38.784,MemoryStudy,2022.1.4,59.302378674663586,
Mem,1,parkingsign.jpg,P,P,JPG\,parkingsign,C:\\Users\\Psychology\\Documents\\ABExperiment\\MemoryStudy\\resources\\JPG\\parkingsign.jpg,C:\\Users\\Psychology\\Documents\\ABExperiment\\MemoryStudy\\resources\\JPG\\,0,47,47,47,,,,,,,22.004513899999438,None,1,0.17796529999759514,22.004513899999438,None,22.004513899999438,None,t,001,2022-06-21_17h47.38.784,MemoryStudy,2022.1.4,59.302378674663586,
Mem,1,skunk.jpg,P,P,JPG\,skunk,C:\\Users\\Psychology\\Documents\\ABExperiment\\MemoryStudy\\resources\\JPG\\skunk.jpg,C:\\Users\\Psychology\\Documents\\ABExperiment\\MemoryStudy\\resources\\JPG\\,0,48,48,48,,,,,,,22.204638200011686,None,1,0.1777464000042528,22.204638200011686,None,22.204638200011686,None,t,001,2022-06-21_17h47.38.784,MemoryStudy,2022.1.4,59.302378674663586,
Mem,1,snowboard.jpg,P,P,JPG\,snowboard,C:\\Users\\Psychology\\Documents\\ABExperiment\\MemoryStudy\\resources\\JPG\\snowboard.jpg,C:\\Users\\Psychology\\Documents\\ABExperiment\\MemoryStudy\\resources\\JPG\\,0,49,49,49,,,,,,,22.404820700001437,None,1,0.2105926000076579,22.404820700001437,None,22.404820700001437,None,t,001,2022-06-21_17h47.38.784,MemoryStudy,2022.1.4,59.302378674663586,
Mem,1,tiger02.jpg,P,P,JPG\,tiger02,C:\\Users\\Psychology\\Documents\\ABExperiment\\MemoryStudy\\resources\\JPG\\tiger02.jpg,C:\\Users\\Psychology\\Documents\\ABExperiment\\MemoryStudy\\resources\\JPG\\,0,50,50,50,,,,,,,22.638629300010507,None,1,0.167593999998644,22.638629300010507,None,22.638629300010507,None,t,001,2022-06-21_17h47.38.784,MemoryStudy,2022.1.4,59.302378674663586,
Mem,1,tree.jpg,P,P,JPG\,tree,C:\\Users\\Psychology\\Documents\\ABExperiment\\MemoryStudy\\resources\\JPG\\tree.jpg,C:\\Users\\Psychology\\Documents\\ABExperiment\\MemoryStudy\\resources\\JPG\\,0,51,51,51,,,,,,,22.841514800005825,None,1,0.16495029999350663,22.841514800005825,None,22.841514800005825,None,t,001,2022-06-21_17h47.38.784,MemoryStudy,2022.1.4,59.302378674663586,
Mem,1,waterfall.jpg,P,P,JPG\,waterfall,C:\\Users\\Psychology\\Documents\\ABExperiment\\MemoryStudy\\resources\\JPG\\waterfall.jpg,C:\\Users\\Psychology\\Documents\\ABExperiment\\MemoryStudy\\resources\\JPG\\,0,52,52,52,,,,,,,23.03873630000453,None,1,0.16774699999950826,23.03873630000453,None,23.03873630000453,None,t,001,2022-06-21_17h47.38.784,MemoryStudy,2022.1.4,59.302378674663586,
Mem,1,bow.jpg,P,P,JPG\,bow,C:\\Users\\Psychology\\Documents\\ABExperiment\\MemoryStudy\\resources\\JPG\\bow.jpg,C:\\Users\\Psychology\\Documents\\ABExperiment\\MemoryStudy\\resources\\JPG\\,0,53,53,53,,,,,,,23.239113100004033,None,1,0.15872839999792632,23.239113100004033,None,23.239113100004033,None,t,001,2022-06-21_17h47.38.784,MemoryStudy,2022.1.4,59.302378674663586,
Mem,1,arugula.jpg,P,P,JPG\,arugula,C:\\Users\\Psychology\\Documents\\ABExperiment\\MemoryStudy\\resources\\JPG\\arugula.jpg,C:\\Users\\Psychology\\Documents\\ABExperiment\\MemoryStudy\\resources\\JPG\\,0,54,54,54,,,,,,,23.497346700009075,None,1,0.09282140000141226,23.497346700009075,None,23.497346700009075,None,t,001,2022-06-21_17h47.38.784,MemoryStudy,2022.1.4,59.302378674663586,
Mem,1,beaver.jpg,P,P,JPG\,beaver,C:\\Users\\Psychology\\Documents\\ABExperiment\\MemoryStudy\\resources\\JPG\\beaver.jpg,C:\\Users\\Psychology\\Documents\\ABExperiment\\MemoryStudy\\resources\\JPG\\,0,55,55,55,,,,,,,23.623681900004158,None,1,0.19162850000429899,23.623681900004158,None,23.623681900004158,None,t,001,2022-06-21_17h47.38.784,MemoryStudy,2022.1.4,59.302378674663586,
Mem,1,snowglobe.jpg,P,P,JPG\,snowglobe,C:\\Users\\Psychology\\Documents\\ABExperiment\\MemoryStudy\\resources\\JPG\\snowglobe.jpg,C:\\Users\\Psychology\\Documents\\ABExperiment\\MemoryStudy\\resources\\JPG\\,0,56,56,56,,,,,,,23.93301930000598,None,1,0.08154539999668486,23.93301930000598,None,23.93301930000598,None,t,001,2022-06-21_17h47.38.784,MemoryStudy,2022.1.4,59.302378674663586,
Mem,1,bullet.jpg,P,P,JPG\,bullet,C:\\Users\\Psychology\\Documents\\ABExperiment\\MemoryStudy\\resources\\JPG\\bullet.jpg,C:\\Users\\Psychology\\Documents\\ABExperiment\\MemoryStudy\\resources\\JPG\\,0,57,57,57,,,,,,,24.039877200004412,None,1,0.18226859999413136,24.039877200004412,None,24.039877200004412,None,t,001,2022-06-21_17h47.38.784,MemoryStudy,2022.1.4,59.302378674663586,
Mem,1,cactus.jpg,P,P,JPG\,cactus,C:\\Users\\Psychology\\Documents\\ABExperiment\\MemoryStudy\\resources\\JPG\\cactus.jpg,C:\\Users\\Psychology\\Documents\\ABExperiment\\MemoryStudy\\resources\\JPG\\,0,58,58,58,,,,,,,24.25423660001252,None,1,0.17584500000521075,24.25423660001252,None,24.25423660001252,None,t,001,2022-06-21_17h47.38.784,MemoryStudy,2022.1.4,59.302378674663586,
Mem,1,cow.jpg,P,P,JPG\,cow,C:\\Users\\Psychology\\Documents\\ABExperiment\\MemoryStudy\\resources\\JPG\\cow.jpg,C:\\Users\\Psychology\\Documents\\ABExperiment\\MemoryStudy\\resources\\JPG\\,0,59,59,59,,,,,,,24.458119700007956,None,1,0.18801290000556037,24.458119700007956,None,24.458119700007956,None,t,001,2022-06-21_17h47.38.784,MemoryStudy,2022.1.4,59.302378674663586,
Mem,1,discoball.jpg,P,P,JPG\,discoball,C:\\Users\\Psychology\\Documents\\ABExperiment\\MemoryStudy\\resources\\JPG\\discoball.jpg,C:\\Users\\Psychology\\Documents\\ABExperiment\\MemoryStudy\\resources\\JPG\\,0,60,60,60,,,,,,,24.67718570001307,None,1,0.20091680000768974,24.67718570001307,None,24.67718570001307,None,t,001,2022-06-21_17h47.38.784,MemoryStudy,2022.1.4,59.302378674663586,
Mem,1,drumstick.jpg,P,P,JPG\,drumstick,C:\\Users\\Psychology\\Documents\\ABExperiment\\MemoryStudy\\resources\\JPG\\drumstick.jpg,C:\\Users\\Psychology\\Documents\\ABExperiment\\MemoryStudy\\resources\\JPG\\,0,61,61,61,,,,,,,24.910152900003595,None,1,0.17587219999404624,24.910152900003595,None,24.910152900003595,None,t,001,2022-06-21_17h47.38.784,MemoryStudy,2022.1.4,59.302378674663586,
Mem,1,fingerprint.jpg,P,P,JPG\,fingerprint,C:\\Users\\Psychology\\Documents\\ABExperiment\\MemoryStudy\\resources\\JPG\\fingerprint.jpg,C:\\Users\\Psychology\\Documents\\ABExperiment\\MemoryStudy\\resources\\JPG\\,0,62,62,62,,,,,,,25.110251400008565,None,1,0.19969310000305995,25.110251400008565,None,25.110251400008565,None,t,001,2022-06-21_17h47.38.784,MemoryStudy,2022.1.4,59.302378674663586,
Mem,1,hockeystick.jpg,P,P,JPG\,hockeystick,C:\\Users\\Psychology\\Documents\\ABExperiment\\MemoryStudy\\resources\\JPG\\hockeystick.jpg,C:\\Users\\Psychology\\Documents\\ABExperiment\\MemoryStudy\\resources\\JPG\\,0,63,63,63,,,,,,,25.342392900012783,None,1,0.1834318000037456,25.342392900012783,None,25.342392900012783,None,t,001,2022-06-21_17h47.38.784,MemoryStudy,2022.1.4,59.302378674663586,
Mem,1,hulahoop.jpg,P,P,JPG\,hulahoop,C:\\Users\\Psychology\\Documents\\ABExperiment\\MemoryStudy\\resources\\JPG\\hulahoop.jpg,C:\\Users\\Psychology\\Documents\\ABExperiment\\MemoryStudy\\resources\\JPG\\,0,64,64,64,,,,,,,25.55763160000788,None,1,0.18404219999501947,25.55763160000788,None,25.55763160000788,None,t,001,2022-06-21_17h47.38.784,MemoryStudy,2022.1.4,59.302378674663586,
Mem,1,ladybug03.jpg,P,P,JPG\,ladybug03,C:\\Users\\Psychology\\Documents\\ABExperiment\\MemoryStudy\\resources\\JPG\\ladybug03.jpg,C:\\Users\\Psychology\\Documents\\ABExperiment\\MemoryStudy\\resources\\JPG\\,0,65,65,65,,,,,,,25.774218400008976,None,1,0.1594796999997925,25.774218400008976,None,25.774218400008976,None,t,001,2022-06-21_17h47.38.784,MemoryStudy,2022.1.4,59.302378674663586,
Mem,1,magneticcompass.jpg,P,P,JPG\,magneticcompass,C:\\Users\\Psychology\\Documents\\ABExperiment\\MemoryStudy\\resources\\JPG\\magneticcompass.jpg,C:\\Users\\Psychology\\Documents\\ABExperiment\\MemoryStudy\\resources\\JPG\\,0,66,66,66,,,,,,,25.957877300010296,None,1,0.1996841000072891,25.957877300010296,None,25.957877300010296,None,t,001,2022-06-21_17h47.38.784,MemoryStudy,2022.1.4,59.302378674663586,
Mem,1,moose.jpg,P,P,JPG\,moose,C:\\Users\\Psychology\\Documents\\ABExperiment\\MemoryStudy\\resources\\JPG\\moose.jpg,C:\\Users\\Psychology\\Documents\\ABExperiment\\MemoryStudy\\resources\\JPG\\,0,67,67,67,,,,,,,26.19108370000322,None,1,0.17481860000407323,26.19108370000322,None,26.19108370000322,None,t,001,2022-06-21_17h47.38.784,MemoryStudy,2022.1.4,59.302378674663586,
Mem,1,peacock.jpg,P,P,JPG\,peacock,C:\\Users\\Psychology\\Documents\\ABExperiment\\MemoryStudy\\resources\\JPG\\peacock.jpg,C:\\Users\\Psychology\\Documents\\ABExperiment\\MemoryStudy\\resources\\JPG\\,0,68,68,68,,,,,,,26.391732500007492,None,1,0.1820162999938475,26.391732500007492,None,26.391732500007492,None,t,001,2022-06-21_17h47.38.784,MemoryStudy,2022.1.4,59.302378674663586,
Mem,1,rooster.jpg,P,P,JPG\,rooster,C:\\Users\\Psychology\\Documents\\ABExperiment\\MemoryStudy\\resources\\JPG\\rooster.jpg,C:\\Users\\Psychology\\Documents\\ABExperiment\\MemoryStudy\\resources\\JPG\\,0,69,69,69,,,,,,,26.60773620000691,None,1,0.1830716999975266,26.60773620000691,None,26.60773620000691,None,t,001,2022-06-21_17h47.38.784,MemoryStudy,2022.1.4,59.302378674663586,
Mem,1,sandcastle.jpg,P,P,JPG\,sandcastle,C:\\Users\\Psychology\\Documents\\ABExperiment\\MemoryStudy\\resources\\JPG\\sandcastle.jpg,C:\\Users\\Psychology\\Documents\\ABExperiment\\MemoryStudy\\resources\\JPG\\,0,70,70,70,,,,,,,26.82452770000964,None,1,0.17312310000124853,26.82452770000964,None,26.82452770000964,None,t,001,2022-06-21_17h47.38.784,MemoryStudy,2022.1.4,59.302378674663586,
Mem,1,sheep.jpg,P,P,JPG\,sheep,C:\\Users\\Psychology\\Documents\\ABExperiment\\MemoryStudy\\resources\\JPG\\sheep.jpg,C:\\Users\\Psychology\\Documents\\ABExperiment\\MemoryStudy\\resources\\JPG\\,0,71,71,71,,,,,,,27.02563660001033,None,1,0.17207509999570902,27.02563660001033,None,27.02563660001033,None,t,001,2022-06-21_17h47.38.784,MemoryStudy,2022.1.4,59.302378674663586,
Mem,1,spiderweb.jpg,P,P,JPG\,spiderweb,C:\\Users\\Psychology\\Documents\\ABExperiment\\MemoryStudy\\resources\\JPG\\spiderweb.jpg,C:\\Users\\Psychology\\Documents\\ABExperiment\\MemoryStudy\\resources\\JPG\\,0,72,72,72,,,,,,,27.22573970000667,None,1,0.19605639998917468,27.22573970000667,None,27.22573970000667,None,t,001,2022-06-21_17h47.38.784,MemoryStudy,2022.1.4,59.302378674663586,
Mem,1,trampoline.jpg,P,P,JPG\,trampoline,C:\\Users\\Psychology\\Documents\\ABExperiment\\MemoryStudy\\resources\\JPG\\trampoline.jpg,C:\\Users\\Psychology\\Documents\\ABExperiment\\MemoryStudy\\resources\\JPG\\,0,73,73,73,,,,,,,27.442446400003973,None,1,0.17172859999118373,27.442446400003973,None,27.442446400003973,None,t,001,2022-06-21_17h47.38.784,MemoryStudy,2022.1.4,59.302378674663586,
Mem,1,trophy01.jpg,P,P,JPG\,trophy01,C:\\Users\\Psychology\\Documents\\ABExperiment\\MemoryStudy\\resources\\JPG\\trophy01.jpg,C:\\Users\\Psychology\\Documents\\ABExperiment\\MemoryStudy\\resources\\JPG\\,0,74,74,74,,,,,,,27.64347350000753,None,1,0.1868038999964483,27.64347350000753,None,27.64347350000753,None,t,001,2022-06-21_17h47.38.784,MemoryStudy,2022.1.4,59.302378674663586,
Mem,1,windmill.jpg,P,P,JPG\,windmill,C:\\Users\\Psychology\\Documents\\ABExperiment\\MemoryStudy\\resources\\JPG\\windmill.jpg,C:\\Users\\Psychology\\Documents\\ABExperiment\\MemoryStudy\\resources\\JPG\\,0,75,75,75,,,,,,,27.860252200000104,None,1,0.18587830000615213,27.860252200000104,None,27.860252200000104,None,t,001,2022-06-21_17h47.38.784,MemoryStudy,2022.1.4,59.302378674663586,
Mem,1,arrow02.jpg,P,P,JPG\,arrow02,C:\\Users\\Psychology\\Documents\\ABExperiment\\MemoryStudy\\resources\\JPG\\arrow02.jpg,C:\\Users\\Psychology\\Documents\\ABExperiment\\MemoryStudy\\resources\\JPG\\,0,76,76,76,,,,,,,28.077042400007485,None,1,0.17686150000372436,28.077042400007485,None,28.077042400007485,None,t,001,2022-06-21_17h47.38.784,MemoryStudy,2022.1.4,59.302378674663586,
Mem,1,birdhouse.jpg,P,P,JPG\,birdhouse,C:\\Users\\Psychology\\Documents\\ABExperiment\\MemoryStudy\\resources\\JPG\\birdhouse.jpg,C:\\Users\\Psychology\\Documents\\ABExperiment\\MemoryStudy\\resources\\JPG\\,0,77,77,77,,,,,,,28.277255200009677,None,1,0.2005057000060333,28.277255200009677,None,28.277255200009677,None,t,001,2022-06-21_17h47.38.784,MemoryStudy,2022.1.4,59.302378674663586,
Mem,1,bridge.jpg,P,P,JPG\,bridge,C:\\Users\\Psychology\\Documents\\ABExperiment\\MemoryStudy\\resources\\JPG\\bridge.jpg,C:\\Users\\Psychology\\Documents\\ABExperiment\\MemoryStudy\\resources\\JPG\\,0,78,78,78,,,,,,,28.515843200002564,None,1,0.1700495000113733,28.515843200002564,None,28.515843200002564,None,t,001,2022-06-21_17h47.38.784,MemoryStudy,2022.1.4,59.302378674663586,
Mem,1,cashregister01.jpg,P,P,JPG\,cashregister01,C:\\Users\\Psychology\\Documents\\ABExperiment\\MemoryStudy\\resources\\JPG\\cashregister01.jpg,C:\\Users\\Psychology\\Documents\\ABExperiment\\MemoryStudy\\resources\\JPG\\,0,79,79,79,,,,,,,28.710982200005674,None,1,0.182697799988091,28.710982200005674,None,28.710982200005674,None,t,001,2022-06-21_17h47.38.784,MemoryStudy,2022.1.4,59.302378674663586,
Mem,1,dartboard.jpg,P,P,JPG\,dartboard,C:\\Users\\Psychology\\Documents\\ABExperiment\\MemoryStudy\\resources\\JPG\\dartboard.jpg,C:\\Users\\Psychology\\Documents\\ABExperiment\\MemoryStudy\\resources\\JPG\\,0,80,80,80,,,,,,,28.92791969999962,None,1,0.18964739999501035,28.92791969999962,None,28.92791969999962,None,t,001,2022-06-21_17h47.38.784,MemoryStudy,2022.1.4,59.302378674663586,
Mem,1,dreamcatcher.jpg,P,P,JPG\,dreamcatcher,C:\\Users\\Psychology\\Documents\\ABExperiment\\MemoryStudy\\resources\\JPG\\dreamcatcher.jpg,C:\\Users\\Psychology\\Documents\\ABExperiment\\MemoryStudy\\resources\\JPG\\,0,81,81,81,,,,,,,29.146340900013456,None,1,0.17975890000525396,29.146340900013456,None,29.146340900013456,None,t,001,2022-06-21_17h47.38.784,MemoryStudy,2022.1.4,59.302378674663586,
Mem,1,escalator.jpg,P,P,JPG\,escalator,C:\\Users\\Psychology\\Documents\\ABExperiment\\MemoryStudy\\resources\\JPG\\escalator.jpg,C:\\Users\\Psychology\\Documents\\ABExperiment\\MemoryStudy\\resources\\JPG\\,0,82,82,82,,,,,,,29.346780400010175,None,1,0.18718940000690054,29.346780400010175,None,29.346780400010175,None,t,001,2022-06-21_17h47.38.784,MemoryStudy,2022.1.4,59.302378674663586,
Mem,1,firehydrant.jpg,P,P,JPG\,firehydrant,C:\\Users\\Psychology\\Documents\\ABExperiment\\MemoryStudy\\resources\\JPG\\firehydrant.jpg,C:\\Users\\Psychology\\Documents\\ABExperiment\\MemoryStudy\\resources\\JPG\\,0,83,83,83,,,,,,,29.564918100004434,None,1,0.19307279998611193,29.564918100004434,None,29.564918100004434,None,t,001,2022-06-21_17h47.38.784,MemoryStudy,2022.1.4,59.302378674663586,
Mem,1,greatwhiteshark.jpg,P,P,JPG\,greatwhiteshark,C:\\Users\\Psychology\\Documents\\ABExperiment\\MemoryStudy\\resources\\JPG\\greatwhiteshark.jpg,C:\\Users\\Psychology\\Documents\\ABExperiment\\MemoryStudy\\resources\\JPG\\,0,84,84,84,,,,,,,29.780998200003523,None,1,0.16993319999892265,29.780998200003523,None,29.780998200003523,None,t,001,2022-06-21_17h47.38.784,MemoryStudy,2022.1.4,59.302378674663586,
Mem,1,helicopter.jpg,P,P,JPG\,helicopter,C:\\Users\\Psychology\\Documents\\ABExperiment\\MemoryStudy\\resources\\JPG\\helicopter.jpg,C:\\Users\\Psychology\\Documents\\ABExperiment\\MemoryStudy\\resources\\JPG\\,0,85,85,85,,,,,,,29.978334400002495,None,1,0.18762140000762884,29.978334400002495,None,29.978334400002495,None,t,001,2022-06-21_17h47.38.784,MemoryStudy,2022.1.4,59.302378674663586,
Mem,1,smokingsign.jpg,P,P,JPG\,smokingsign,C:\\Users\\Psychology\\Documents\\ABExperiment\\MemoryStudy\\resources\\JPG\\smokingsign.jpg,C:\\Users\\Psychology\\Documents\\ABExperiment\\MemoryStudy\\resources\\JPG\\,0,86,86,86,,,,,,,30.195182400013437,None,1,0.1865408000012394,30.195182400013437,None,30.195182400013437,None,t,001,2022-06-21_17h47.38.784,MemoryStudy,2022.1.4,59.302378674663586,
Mem,1,barnowl.jpg,P,P,JPG\,barnowl,C:\\Users\\Psychology\\Documents\\ABExperiment\\MemoryStudy\\resources\\JPG\\barnowl.jpg,C:\\Users\\Psychology\\Documents\\ABExperiment\\MemoryStudy\\resources\\JPG\\,0,87,87,87,,,,,,,30.488389800011646,None,1,0.11770780000369996,30.488389800011646,None,30.488389800011646,None,t,001,2022-06-21_17h47.38.784,MemoryStudy,2022.1.4,59.302378674663586,
Mem,1,pig.jpg,P,P,JPG\,pig,C:\\Users\\Psychology\\Documents\\ABExperiment\\MemoryStudy\\resources\\JPG\\pig.jpg,C:\\Users\\Psychology\\Documents\\ABExperiment\\MemoryStudy\\resources\\JPG\\,0,88,88,88,,,,,,,30.633383400010644,None,1,0.19663669999863487,30.633383400010644,None,30.633383400010644,None,t,001,2022-06-21_17h47.38.784,MemoryStudy,2022.1.4,59.302378674663586,
Mem,1,polarbear.jpg,P,P,JPG\,polarbear,C:\\Users\\Psychology\\Documents\\ABExperiment\\MemoryStudy\\resources\\JPG\\polarbear.jpg,C:\\Users\\Psychology\\Documents\\ABExperiment\\MemoryStudy\\resources\\JPG\\,0,89,89,89,,,,,,,30.866516400012188,None,1,0.21943879999162164,30.866516400012188,None,30.866516400012188,None,t,001,2022-06-21_17h47.38.784,MemoryStudy,2022.1.4,59.302378674663586,
Mem,1,sandbarshark.jpg,P,P,JPG\,sandbarshark,C:\\Users\\Psychology\\Documents\\ABExperiment\\MemoryStudy\\resources\\JPG\\sandbarshark.jpg,C:\\Users\\Psychology\\Documents\\ABExperiment\\MemoryStudy\\resources\\JPG\\,0,90,90,90,,,,,,,31.210112800006755,None,1,0.09223720000591129,31.210112800006755,None,31.210112800006755,None,t,001,2022-06-21_17h47.38.784,MemoryStudy,2022.1.4,59.302378674663586,
Mem,1,telescope.jpg,P,P,JPG\,telescope,C:\\Users\\Psychology\\Documents\\ABExperiment\\MemoryStudy\\resources\\JPG\\telescope.jpg,C:\\Users\\Psychology\\Documents\\ABExperiment\\MemoryStudy\\resources\\JPG\\,0,91,91,91,,,,,,,31.328092900002957,None,1,0.20553179999114946,31.328092900002957,None,31.328092900002957,None,t,001,2022-06-21_17h47.38.784,MemoryStudy,2022.1.4,59.302378674663586,
Mem,1,tent.jpg,P,P,JPG\,tent,C:\\Users\\Psychology\\Documents\\ABExperiment\\MemoryStudy\\resources\\JPG\\tent.jpg,C:\\Users\\Psychology\\Documents\\ABExperiment\\MemoryStudy\\resources\\JPG\\,0,92,92,92,,,,,,,31.568058900011238,None,1,0.1904071000026306,31.568058900011238,None,31.568058900011238,None,t,001,2022-06-21_17h47.38.784,MemoryStudy,2022.1.4,59.302378674663586,
Mem,1,toilet.jpg,P,P,JPG\,toilet,C:\\Users\\Psychology\\Documents\\ABExperiment\\MemoryStudy\\resources\\JPG\\toilet.jpg,C:\\Users\\Psychology\\Documents\\ABExperiment\\MemoryStudy\\resources\\JPG\\,0,93,93,93,,,,,,,31.780931900008,None,1,0.20145989999582525,31.780931900008,None,31.780931900008,None,t,001,2022-06-21_17h47.38.784,MemoryStudy,2022.1.4,59.302378674663586,
Mem,1,tricycle.jpg,P,P,JPG\,tricycle,C:\\Users\\Psychology\\Documents\\ABExperiment\\MemoryStudy\\resources\\JPG\\tricycle.jpg,C:\\Users\\Psychology\\Documents\\ABExperiment\\MemoryStudy\\resources\\JPG\\,0,94,94,94,,,,,,,32.00851880000846,None,1,0.20590369999990799,32.00851880000846,None,32.00851880000846,None,t,001,2022-06-21_17h47.38.784,MemoryStudy,2022.1.4,59.302378674663586,
Mem,1,rubikcube.jpg,P,P,JPG\,rubikcube,C:\\Users\\Psychology\\Documents\\ABExperiment\\MemoryStudy\\resources\\JPG\\rubikcube.jpg,C:\\Users\\Psychology\\Documents\\ABExperiment\\MemoryStudy\\resources\\JPG\\,0,95,95,95,,,,,,,32.247726900008274,None,1,0.23857059999136254,32.247726900008274,None,32.247726900008274,None,t,001,2022-06-21_17h47.38.784,MemoryStudy,2022.1.4,59.302378674663586,
Mem,1,anchor.jpg,P,P,JPG\,anchor,C:\\Users\\Psychology\\Documents\\ABExperiment\\MemoryStudy\\resources\\JPG\\anchor.jpg,C:\\Users\\Psychology\\Documents\\ABExperiment\\MemoryStudy\\resources\\JPG\\,0,96,96,96,,,,,,,32.51481469999999,None,1,0.23544479999691248,32.51481469999999,None,32.51481469999999,None,t,001,2022-06-21_17h47.38.784,MemoryStudy,2022.1.4,59.302378674663586,
Mem,1,beerbottle.jpg,P,P,JPG\,beerbottle,C:\\Users\\Psychology\\Documents\\ABExperiment\\MemoryStudy\\resources\\JPG\\beerbottle.jpg,C:\\Users\\Psychology\\Documents\\ABExperiment\\MemoryStudy\\resources\\JPG\\,0,97,97,97,,,,,,,32.780187500000466,None,1,0.2339907999994466,32.780187500000466,None,32.780187500000466,None,t,001,2022-06-21_17h47.38.784,MemoryStudy,2022.1.4,59.302378674663586,
Mem,1,bowtie.jpg,P,P,JPG\,bowtie,C:\\Users\\Psychology\\Documents\\ABExperiment\\MemoryStudy\\resources\\JPG\\bowtie.jpg,C:\\Users\\Psychology\\Documents\\ABExperiment\\MemoryStudy\\resources\\JPG\\,0,98,98,98,,,,,,,33.04693350000889,None,1,0.2403682000003755,33.04693350000889,None,33.04693350000889,None,t,001,2022-06-21_17h47.38.784,MemoryStudy,2022.1.4,59.302378674663586,
Mem,1,cannon.jpg,P,P,JPG\,cannon,C:\\Users\\Psychology\\Documents\\ABExperiment\\MemoryStudy\\resources\\JPG\\cannon.jpg,C:\\Users\\Psychology\\Documents\\ABExperiment\\MemoryStudy\\resources\\JPG\\,0,99,99,99,,,,,,,33.314105100012966,None,1,0.27646680000179913,33.314105100012966,None,33.314105100012966,None,t,001,2022-06-21_17h47.38.784,MemoryStudy,2022.1.4,59.302378674663586,
Mem,1,cat.jpg,P,P,JPG\,cat,C:\\Users\\Psychology\\Documents\\ABExperiment\\MemoryStudy\\resources\\JPG\\cat.jpg,C:\\Users\\Psychology\\Documents\\ABExperiment\\MemoryStudy\\resources\\JPG\\,0,100,100,100,,,,,,,33.626121900000726,None,1,0.2521171999978833,33.626121900000726,None,33.626121900000726,None,t,001,2022-06-21_17h47.38.784,MemoryStudy,2022.1.4,59.302378674663586,
Mem,1,chair.jpg,P,P,JPG\,chair,C:\\Users\\Psychology\\Documents\\ABExperiment\\MemoryStudy\\resources\\JPG\\chair.jpg,C:\\Users\\Psychology\\Documents\\ABExperiment\\MemoryStudy\\resources\\JPG\\,0,101,101,101,,,,,,,33.89903120000963,None,1,0.34710609998728614,33.89903120000963,None,33.89903120000963,None,t,001,2022-06-21_17h47.38.784,MemoryStudy,2022.1.4,59.302378674663586,
Mem,1,cross01.jpg,P,P,JPG\,cross01,C:\\Users\\Psychology\\Documents\\ABExperiment\\MemoryStudy\\resources\\JPG\\cross01.jpg,C:\\Users\\Psychology\\Documents\\ABExperiment\\MemoryStudy\\resources\\JPG\\,0,102,102,102,,,,,,,34.26635870001337,None,1,0.3556313000008231,34.26635870001337,None,34.26635870001337,None,t,001,2022-06-21_17h47.38.784,MemoryStudy,2022.1.4,59.302378674663586,
Mem,1,englishcucumber.jpg,P,P,JPG\,englishcucumber,C:\\Users\\Psychology\\Documents\\ABExperiment\\MemoryStudy\\resources\\JPG\\englishcucumber.jpg,C:\\Users\\Psychology\\Documents\\ABExperiment\\MemoryStudy\\resources\\JPG\\,0,103,103,103,,,,,,,34.64968000000226,None,1,0.3492854000069201,34.64968000000226,None,34.64968000000226,None,t,001,2022-06-21_17h47.38.784,MemoryStudy,2022.1.4,59.302378674663586,
Mem,1,frisbee.jpg,P,P,JPG\,frisbee,C:\\Users\\Psychology\\Documents\\ABExperiment\\MemoryStudy\\resources\\JPG\\frisbee.jpg,C:\\Users\\Psychology\\Documents\\ABExperiment\\MemoryStudy\\resources\\JPG\\,0,104,104,104,,,,,,,35.034093500013114,None,1,0.3246700999879977,35.034093500013114,None,35.034093500013114,None,t,001,2022-06-21_17h47.38.784,MemoryStudy,2022.1.4,59.302378674663586,
Mem,1,granolabar01.jpg,P,P,JPG\,granolabar01,C:\\Users\\Psychology\\Documents\\ABExperiment\\MemoryStudy\\resources\\JPG\\granolabar01.jpg,C:\\Users\\Psychology\\Documents\\ABExperiment\\MemoryStudy\\resources\\JPG\\,0,105,105,105,,,,,,,35.390068799999426,None,1,0.3275786000012886,35.390068799999426,None,35.390068799999426,None,t,001,2022-06-21_17h47.38.784,MemoryStudy,2022.1.4,59.302378674663586,
Mem,1,jeans01.jpg,P,P,JPG\,jeans01,C:\\Users\\Psychology\\Documents\\ABExperiment\\MemoryStudy\\resources\\JPG\\jeans01.jpg,C:\\Users\\Psychology\\Documents\\ABExperiment\\MemoryStudy\\resources\\JPG\\,0,106,106,106,,,,,,,35.752587200011476,None,1,0.3180660999933025,35.752587200011476,None,35.752587200011476,None,t,001,2022-06-21_17h47.38.784,MemoryStudy,2022.1.4,59.302378674663586,
Mem,1,jeep.jpg,P,P,JPG\,jeep,C:\\Users\\Psychology\\Documents\\ABExperiment\\MemoryStudy\\resources\\JPG\\jeep.jpg,C:\\Users\\Psychology\\Documents\\ABExperiment\\MemoryStudy\\resources\\JPG\\,0,107,107,107,,,,,,,36.10181230001035,None,1,0.3127133999951184,36.10181230001035,None,36.10181230001035,None,t,001,2022-06-21_17h47.38.784,MemoryStudy,2022.1.4,59.302378674663586,
Mem,1,knee.jpg,P,P,JPG\,knee,C:\\Users\\Psychology\\Documents\\ABExperiment\\MemoryStudy\\resources\\JPG\\knee.jpg,C:\\Users\\Psychology\\Documents\\ABExperiment\\MemoryStudy\\resources\\JPG\\,0,108,108,108,,,,,,,36.43493610000587,None,1,0.3153678999951808,36.43493610000587,None,36.43493610000587,None,t,001,2022-06-21_17h47.38.784,MemoryStudy,2022.1.4,59.302378674663586,
Mem,1,lighthouse.jpg,P,P,JPG\,lighthouse,C:\\Users\\Psychology\\Documents\\ABExperiment\\MemoryStudy\\resources\\JPG\\lighthouse.jpg,C:\\Users\\Psychology\\Documents\\ABExperiment\\MemoryStudy\\resources\\JPG\\,0,109,109,109,,,,,,,36.78483319999941,None,1,0.3173114999954123,36.78483319999941,None,36.78483319999941,None,t,001,2022-06-21_17h47.38.784,MemoryStudy,2022.1.4,59.302378674663586,
Mem,1,lion.jpg,P,P,JPG\,lion,C:\\Users\\Psychology\\Documents\\ABExperiment\\MemoryStudy\\resources\\JPG\\lion.jpg,C:\\Users\\Psychology\\Documents\\ABExperiment\\MemoryStudy\\resources\\JPG\\,0,110,110,110,,,,,,,37.13555560000532,None,1,0.30238580000877846,37.13555560000532,None,37.13555560000532,None,t,001,2022-06-21_17h47.38.784,MemoryStudy,2022.1.4,59.302378674663586,
Mem,1,microphone01.jpg,P,P,JPG\,microphone01,C:\\Users\\Psychology\\Documents\\ABExperiment\\MemoryStudy\\resources\\JPG\\microphone01.jpg,C:\\Users\\Psychology\\Documents\\ABExperiment\\MemoryStudy\\resources\\JPG\\,0,111,111,111,,,,,,,37.469973400002345,None,1,0.31975619999866467,37.469973400002345,None,37.469973400002345,None,t,001,2022-06-21_17h47.38.784,MemoryStudy,2022.1.4,59.302378674663586,
