TrialType,Lag,Image,T1PA,T2PA,PicFolder,Picture,FullPathName,FilePath,trials.thisRepN,trials.thisTrialN,trials.thisN,trials.thisIndex,text.started,text.stopped,End_Instructions.keys,End_Instructions.rt,End_Instructions.started,End_Instructions.stopped,MemTest.started,MemTest.stopped,MemResponse.keys,MemResponse.rt,MemResponse.started,MemResponse.stopped,Display.started,Display.stopped,participant,session,date,expName,psychopyVersion,frameRate,
,,,,,,,,,,,,,10.372869200000423,None,space,0.3132761000015307,10.372869200000423,None,,,,,,,,,t,001,2022-06-21_17h39.30.850,MemoryStudy,2022.1.4,59.96969131935319,
Mem,1,giraffe.jpg,P,P,JPG\,giraffe,C:\\Users\\Psychology\\Documents\\ABExperiment\\MemoryStudy\\resources\\JPG\\giraffe.jpg,C:\\Users\\Psychology\\Documents\\ABExperiment\\MemoryStudy\\resources\\JPG\\,0,0,0,0,,,,,,,10.887992700008908,None,1,0.36665900000662077,10.887992700008908,None,10.887992700008908,None,t,001,2022-06-21_17h39.30.850,MemoryStudy,2022.1.4,59.96969131935319,
Mem,1,greathornowl.jpg,P,P,JPG\,greathornowl,C:\\Users\\Psychology\\Documents\\ABExperiment\\MemoryStudy\\resources\\JPG\\greathornowl.jpg,C:\\Users\\Psychology\\Documents\\ABExperiment\\MemoryStudy\\resources\\JPG\\,0,1,1,1,,,,,,,11.287993100006133,None,1,0.43852299998980016,11.287993100006133,None,11.287993100006133,None,t,001,2022-06-21_17h39.30.850,MemoryStudy,2022.1.4,59.96969131935319,
Mem,1,candle08b.jpg,P,P,JPG\,candle08b,C:\\Users\\Psychology\\Documents\\ABExperiment\\MemoryStudy\\resources\\JPG\\candle08b.jpg,C:\\Users\\Psychology\\Documents\\ABExperiment\\MemoryStudy\\resources\\JPG\\,0,2,2,2,,,,,,,11.858248500007903,None,1,0.30795460000808816,11.858248500007903,None,11.858248500007903,None,t,001,2022-06-21_17h39.30.850,MemoryStudy,2022.1.4,59.96969131935319,
Mem,1,horse.jpg,P,P,JPG\,horse,C:\\Users\\Psychology\\Documents\\ABExperiment\\MemoryStudy\\resources\\JPG\\horse.jpg,C:\\Users\\Psychology\\Documents\\ABExperiment\\MemoryStudy\\resources\\JPG\\,0,3,3,3,,,,,,,12.254437900002813,None,1,0.33606819999113213,12.254437900002813,None,12.254437900002813,None,t,001,2022-06-21_17h39.30.850,MemoryStudy,2022.1.4,59.96969131935319,
Mem,1,snowman.jpg,P,P,JPG\,snowman,C:\\Users\\Psychology\\Documents\\ABExperiment\\MemoryStudy\\resources\\JPG\\snowman.jpg,C:\\Users\\Psychology\\Documents\\ABExperiment\\MemoryStudy\\resources\\JPG\\,0,4,4,4,,,,,,,12.619226900002104,None,1,0.3952490000083344,12.619226900002104,None,12.619226900002104,None,t,001,2022-06-21_17h39.30.850,MemoryStudy,2022.1.4,59.96969131935319,
Mem,1,squirrel.jpg,P,P,JPG\,squirrel,C:\\Users\\Psychology\\Documents\\ABExperiment\\MemoryStudy\\resources\\JPG\\squirrel.jpg,C:\\Users\\Psychology\\Documents\\ABExperiment\\MemoryStudy\\resources\\JPG\\,0,5,5,5,,,,,,,13.041519300008076,None,1,0.38901920001080725,13.041519300008076,None,13.041519300008076,None,t,001,2022-06-21_17h39.30.850,MemoryStudy,2022.1.4,59.96969131935319,
Mem,1,firtree.jpg,P,P,JPG\,firtree,C:\\Users\\Psychology\\Documents\\ABExperiment\\MemoryStudy\\resources\\JPG\\firtree.jpg,C:\\Users\\Psychology\\Documents\\ABExperiment\\MemoryStudy\\resources\\JPG\\,0,6,6,6,,,,,,,13.553574500008835,None,1,0.29356590000679716,13.553574500008835,None,13.553574500008835,None,t,001,2022-06-21_17h39.30.850,MemoryStudy,2022.1.4,59.96969131935319,
Mem,1,bowlingball.jpg,P,P,JPG\,bowlingball,C:\\Users\\Psychology\\Documents\\ABExperiment\\MemoryStudy\\resources\\JPG\\bowlingball.jpg,C:\\Users\\Psychology\\Documents\\ABExperiment\\MemoryStudy\\resources\\JPG\\,0,7,7,7,,,,,,,13.873369799999637,None,1,0.39855339999485295,13.873369799999637,None,13.873369799999637,None,t,001,2022-06-21_17h39.30.850,MemoryStudy,2022.1.4,59.96969131935319,
Mem,1,bowlingpin.jpg,P,P,JPG\,bowlingpin,C:\\Users\\Psychology\\Documents\\ABExperiment\\MemoryStudy\\resources\\JPG\\bowlingpin.jpg,C:\\Users\\Psychology\\Documents\\ABExperiment\\MemoryStudy\\resources\\JPG\\,0,8,8,8,,,,,,,14.306696100000408,None,1,0.40511890000198036,14.306696100000408,None,14.306696100000408,None,t,001,2022-06-21_17h39.30.850,MemoryStudy,2022.1.4,59.96969131935319,
Mem,1,candycane01a.jpg,P,P,JPG\,candycane01a,C:\\Users\\Psychology\\Documents\\ABExperiment\\MemoryStudy\\resources\\JPG\\candycane01a.jpg,C:\\Users\\Psychology\\Documents\\ABExperiment\\MemoryStudy\\resources\\JPG\\,0,9,9,9,,,,,,,14.738139799999772,None,1,0.40450520000013057,14.738139799999772,None,14.738139799999772,None,t,001,2022-06-21_17h39.30.850,MemoryStudy,2022.1.4,59.96969131935319,
Mem,1,dolphin01.jpg,P,P,JPG\,dolphin01,C:\\Users\\Psychology\\Documents\\ABExperiment\\MemoryStudy\\resources\\JPG\\dolphin01.jpg,C:\\Users\\Psychology\\Documents\\ABExperiment\\MemoryStudy\\resources\\JPG\\,0,10,10,10,,,,,,,15.174635100003798,None,1,0.3842722999979742,15.174635100003798,None,15.174635100003798,None,t,001,2022-06-21_17h39.30.850,MemoryStudy,2022.1.4,59.96969131935319,
Mem,1,dromedary.jpg,P,P,JPG\,dromedary,C:\\Users\\Psychology\\Documents\\ABExperiment\\MemoryStudy\\resources\\JPG\\dromedary.jpg,C:\\Users\\Psychology\\Documents\\ABExperiment\\MemoryStudy\\resources\\JPG\\,0,11,11,11,,,,,,,15.593672900009551,None,1,0.36521499999798834,15.593672900009551,None,15.593672900009551,None,t,001,2022-06-21_17h39.30.850,MemoryStudy,2022.1.4,59.96969131935319,
Mem,1,football.jpg,P,P,JPG\,football,C:\\Users\\Psychology\\Documents\\ABExperiment\\MemoryStudy\\resources\\JPG\\football.jpg,C:\\Users\\Psychology\\Documents\\ABExperiment\\MemoryStudy\\resources\\JPG\\,0,12,12,12,,,,,,,15.99376920000941,None,1,0.3883027999982005,15.99376920000941,None,15.99376920000941,None,t,001,2022-06-21_17h39.30.850,MemoryStudy,2022.1.4,59.96969131935319,
Mem,1,golfball.jpg,P,P,JPG\,golfball,C:\\Users\\Psychology\\Documents\\ABExperiment\\MemoryStudy\\resources\\JPG\\golfball.jpg,C:\\Users\\Psychology\\Documents\\ABExperiment\\MemoryStudy\\resources\\JPG\\,0,13,13,13,,,,,,,16.41134150000289,None,1,0.36281060001056176,16.41134150000289,None,16.41134150000289,None,t,001,2022-06-21_17h39.30.850,MemoryStudy,2022.1.4,59.96969131935319,
Mem,1,guitarcase.jpg,P,P,JPG\,guitarcase,C:\\Users\\Psychology\\Documents\\ABExperiment\\MemoryStudy\\resources\\JPG\\guitarcase.jpg,C:\\Users\\Psychology\\Documents\\ABExperiment\\MemoryStudy\\resources\\JPG\\,0,14,14,14,,,,,,,16.80808820000675,None,1,0.3502506000077119,16.80808820000675,None,16.80808820000675,None,t,001,2022-06-21_17h39.30.850,MemoryStudy,2022.1.4,59.96969131935319,
Mem,1,jellybean.jpg,P,P,JPG\,jellybean,C:\\Users\\Psychology\\Documents\\ABExperiment\\MemoryStudy\\resources\\JPG\\jellybean.jpg,C:\\Users\\Psychology\\Documents\\ABExperiment\\MemoryStudy\\resources\\JPG\\,0,15,15,15,,,,,,,17.185938400012674,None,1,0.39607709999836516,17.185938400012674,None,17.185938400012674,None,t,001,2022-06-21_17h39.30.850,MemoryStudy,2022.1.4,59.96969131935319,
Mem,1,kangaroo.jpg,P,P,JPG\,kangaroo,C:\\Users\\Psychology\\Documents\\ABExperiment\\MemoryStudy\\resources\\JPG\\kangaroo.jpg,C:\\Users\\Psychology\\Documents\\ABExperiment\\MemoryStudy\\resources\\JPG\\,0,16,16,16,,,,,,,17.609241000012844,None,1,0.3496507000090787,17.609241000012844,None,17.609241000012844,None,t,001,2022-06-21_17h39.30.850,MemoryStudy,2022.1.4,59.96969131935319,
Mem,1,kite.jpg,P,P,JPG\,kite,C:\\Users\\Psychology\\Documents\\ABExperiment\\MemoryStudy\\resources\\JPG\\kite.jpg,C:\\Users\\Psychology\\Documents\\ABExperiment\\MemoryStudy\\resources\\JPG\\,0,17,17,17,,,,,,,17.99267810001038,None,1,0.3750947999942582,17.99267810001038,None,17.99267810001038,None,t,001,2022-06-21_17h39.30.850,MemoryStudy,2022.1.4,59.96969131935319,
Mem,1,lightswitch01.jpg,P,P,JPG\,lightswitch01,C:\\Users\\Psychology\\Documents\\ABExperiment\\MemoryStudy\\resources\\JPG\\lightswitch01.jpg,C:\\Users\\Psychology\\Documents\\ABExperiment\\MemoryStudy\\resources\\JPG\\,0,18,18,18,,,,,,,18.393293600005563,None,1,0.4781568000034895,18.393293600005563,None,18.393293600005563,None,t,001,2022-06-21_17h39.30.850,MemoryStudy,2022.1.4,59.96969131935319,
Mem,1,locker.jpg,P,P,JPG\,locker,C:\\Users\\Psychology\\Documents\\ABExperiment\\MemoryStudy\\resources\\JPG\\locker.jpg,C:\\Users\\Psychology\\Documents\\ABExperiment\\MemoryStudy\\resources\\JPG\\,0,19,19,19,,,,,,,18.893816399999196,None,1,0.392392399997334,18.893816399999196,None,18.893816399999196,None,t,001,2022-06-21_17h39.30.850,MemoryStudy,2022.1.4,59.96969131935319,
Mem,1,mailbox01.jpg,P,P,JPG\,mailbox01,C:\\Users\\Psychology\\Documents\\ABExperiment\\MemoryStudy\\resources\\JPG\\mailbox01.jpg,C:\\Users\\Psychology\\Documents\\ABExperiment\\MemoryStudy\\resources\\JPG\\,0,20,20,20,,,,,,,19.403120200004196,None,1,0.3003160999942338,19.403120200004196,None,19.403120200004196,None,t,001,2022-06-21_17h39.30.850,MemoryStudy,2022.1.4,59.96969131935319,
Mem,1,mailbox02.jpg,P,P,JPG\,mailbox02,C:\\Users\\Psychology\\Documents\\ABExperiment\\MemoryStudy\\resources\\JPG\\mailbox02.jpg,C:\\Users\\Psychology\\Documents\\ABExperiment\\MemoryStudy\\resources\\JPG\\,0,21,21,21,,,,,,,19.728273600005195,None,1,0.398920999999973,19.728273600005195,None,19.728273600005195,None,t,001,2022-06-21_17h39.30.850,MemoryStudy,2022.1.4,59.96969131935319,
Mem,1,mattress.jpg,P,P,JPG\,mattress,C:\\Users\\Psychology\\Documents\\ABExperiment\\MemoryStudy\\resources\\JPG\\mattress.jpg,C:\\Users\\Psychology\\Documents\\ABExperiment\\MemoryStudy\\resources\\JPG\\,0,22,22,22,,,,,,,20.16139760000806,None,1,0.3655730000027688,20.16139760000806,None,20.16139760000806,None,t,001,2022-06-21_17h39.30.850,MemoryStudy,2022.1.4,59.96969131935319,
Mem,1,pumpkin.jpg,P,P,JPG\,pumpkin,C:\\Users\\Psychology\\Documents\\ABExperiment\\MemoryStudy\\resources\\JPG\\pumpkin.jpg,C:\\Users\\Psychology\\Documents\\ABExperiment\\MemoryStudy\\resources\\JPG\\,0,23,23,23,,,,,,,20.56169710001268,None,1,0.34904530001222156,20.56169710001268,None,20.56169710001268,None,t,001,2022-06-21_17h39.30.850,MemoryStudy,2022.1.4,59.96969131935319,
Mem,1,schoolbus.jpg,P,P,JPG\,schoolbus,C:\\Users\\Psychology\\Documents\\ABExperiment\\MemoryStudy\\resources\\JPG\\schoolbus.jpg,C:\\Users\\Psychology\\Documents\\ABExperiment\\MemoryStudy\\resources\\JPG\\,0,24,24,24,,,,,,,20.95011400000658,None,1,0.3619747000047937,20.95011400000658,None,20.95011400000658,None,t,001,2022-06-21_17h39.30.850,MemoryStudy,2022.1.4,59.96969131935319,
Mem,1,skateboard.jpg,P,P,JPG\,skateboard,C:\\Users\\Psychology\\Documents\\ABExperiment\\MemoryStudy\\resources\\JPG\\skateboard.jpg,C:\\Users\\Psychology\\Documents\\ABExperiment\\MemoryStudy\\resources\\JPG\\,0,25,25,25,,,,,,,21.333843000000343,None,1,0.36189939999894705,21.333843000000343,None,21.333843000000343,None,t,001,2022-06-21_17h39.30.850,MemoryStudy,2022.1.4,59.96969131935319,
Mem,1,soccerball.jpg,P,P,JPG\,soccerball,C:\\Users\\Psychology\\Documents\\ABExperiment\\MemoryStudy\\resources\\JPG\\soccerball.jpg,C:\\Users\\Psychology\\Documents\\ABExperiment\\MemoryStudy\\resources\\JPG\\,0,26,26,26,,,,,,,21.731024700013222,None,1,0.3568345999956364,21.731024700013222,None,21.731024700013222,None,t,001,2022-06-21_17h39.30.850,MemoryStudy,2022.1.4,59.96969131935319,
Mem,1,wheelchair.jpg,P,P,JPG\,wheelchair,C:\\Users\\Psychology\\Documents\\ABExperiment\\MemoryStudy\\resources\\JPG\\wheelchair.jpg,C:\\Users\\Psychology\\Documents\\ABExperiment\\MemoryStudy\\resources\\JPG\\,0,27,27,27,,,,,,,22.112621899999795,None,1,0.40718070000002626,22.112621899999795,None,22.112621899999795,None,t,001,2022-06-21_17h39.30.850,MemoryStudy,2022.1.4,59.96969131935319,
Mem,1,zebra.jpg,P,P,JPG\,zebra,C:\\Users\\Psychology\\Documents\\ABExperiment\\MemoryStudy\\resources\\JPG\\zebra.jpg,C:\\Users\\Psychology\\Documents\\ABExperiment\\MemoryStudy\\resources\\JPG\\,0,28,28,28,,,,,,,22.546447800006717,None,1,0.40453129999514204,22.546447800006717,None,22.546447800006717,None,t,001,2022-06-21_17h39.30.850,MemoryStudy,2022.1.4,59.96969131935319,
Mem,1,pooltable.jpg,P,P,JPG\,pooltable,C:\\Users\\Psychology\\Documents\\ABExperiment\\MemoryStudy\\resources\\JPG\\pooltable.jpg,C:\\Users\\Psychology\\Documents\\ABExperiment\\MemoryStudy\\resources\\JPG\\,0,29,29,29,,,,,,,22.990297900003497,None,1,0.36840539998956956,22.990297900003497,None,22.990297900003497,None,t,001,2022-06-21_17h39.30.850,MemoryStudy,2022.1.4,59.96969131935319,
Mem,1,swing.jpg,P,P,JPG\,swing,C:\\Users\\Psychology\\Documents\\ABExperiment\\MemoryStudy\\resources\\JPG\\swing.jpg,C:\\Users\\Psychology\\Documents\\ABExperiment\\MemoryStudy\\resources\\JPG\\,0,30,30,30,,,,,,,23.382103399999323,None,1,0.36844550000387244,23.382103399999323,None,23.382103399999323,None,t,001,2022-06-21_17h39.30.850,MemoryStudy,2022.1.4,59.96969131935319,
Mem,1,africanelephant.jpg,P,P,JPG\,africanelephant,C:\\Users\\Psychology\\Documents\\ABExperiment\\MemoryStudy\\resources\\JPG\\africanelephant.jpg,C:\\Users\\Psychology\\Documents\\ABExperiment\\MemoryStudy\\resources\\JPG\\,0,31,31,31,,,,,,,23.782628800006933,None,1,0.34385639999527484,23.782628800006933,None,23.782628800006933,None,t,001,2022-06-21_17h39.30.850,MemoryStudy,2022.1.4,59.96969131935319,
Mem,1,apron.jpg,P,P,JPG\,apron,C:\\Users\\Psychology\\Documents\\ABExperiment\\MemoryStudy\\resources\\JPG\\apron.jpg,C:\\Users\\Psychology\\Documents\\ABExperiment\\MemoryStudy\\resources\\JPG\\,0,32,32,32,,,,,,,24.149587500010966,None,1,0.44859520001045894,24.149587500010966,None,24.149587500010966,None,t,001,2022-06-21_17h39.30.850,MemoryStudy,2022.1.4,59.96969131935319,
Mem,1,barnowl.jpg,P,P,JPG\,barnowl,C:\\Users\\Psychology\\Documents\\ABExperiment\\MemoryStudy\\resources\\JPG\\barnowl.jpg,C:\\Users\\Psychology\\Documents\\ABExperiment\\MemoryStudy\\resources\\JPG\\,0,33,33,33,,,,,,,24.71838450001087,None,1,0.29674199999135453,24.71838450001087,None,24.71838450001087,None,t,001,2022-06-21_17h39.30.850,MemoryStudy,2022.1.4,59.96969131935319,
Mem,1,basketball01.jpg,P,P,JPG\,basketball01,C:\\Users\\Psychology\\Documents\\ABExperiment\\MemoryStudy\\resources\\JPG\\basketball01.jpg,C:\\Users\\Psychology\\Documents\\ABExperiment\\MemoryStudy\\resources\\JPG\\,0,34,34,34,,,,,,,25.034636399999727,None,1,0.33224499999778345,25.034636399999727,None,25.034636399999727,None,t,001,2022-06-21_17h39.30.850,MemoryStudy,2022.1.4,59.96969131935319,
Mem,1,bat.jpg,P,P,JPG\,bat,C:\\Users\\Psychology\\Documents\\ABExperiment\\MemoryStudy\\resources\\JPG\\bat.jpg,C:\\Users\\Psychology\\Documents\\ABExperiment\\MemoryStudy\\resources\\JPG\\,0,35,35,35,,,,,,,25.400947400004952,None,1,0.3427514999930281,25.400947400004952,None,25.400947400004952,None,t,001,2022-06-21_17h39.30.850,MemoryStudy,2022.1.4,59.96969131935319,
Mem,1,cloud.jpg,P,P,JPG\,cloud,C:\\Users\\Psychology\\Documents\\ABExperiment\\MemoryStudy\\resources\\JPG\\cloud.jpg,C:\\Users\\Psychology\\Documents\\ABExperiment\\MemoryStudy\\resources\\JPG\\,0,36,36,36,,,,,,,25.769907599998987,None,1,0.34884810000949074,25.769907599998987,None,25.769907599998987,None,t,001,2022-06-21_17h39.30.850,MemoryStudy,2022.1.4,59.96969131935319,
Mem,1,crab01.jpg,P,P,JPG\,crab01,C:\\Users\\Psychology\\Documents\\ABExperiment\\MemoryStudy\\resources\\JPG\\crab01.jpg,C:\\Users\\Psychology\\Documents\\ABExperiment\\MemoryStudy\\resources\\JPG\\,0,37,37,37,,,,,,,26.151123900010134,None,1,0.30389920000743587,26.151123900010134,None,26.151123900010134,None,t,001,2022-06-21_17h39.30.850,MemoryStudy,2022.1.4,59.96969131935319,
Mem,1,cupcake.jpg,P,P,JPG\,cupcake,C:\\Users\\Psychology\\Documents\\ABExperiment\\MemoryStudy\\resources\\JPG\\cupcake.jpg,C:\\Users\\Psychology\\Documents\\ABExperiment\\MemoryStudy\\resources\\JPG\\,0,38,38,38,,,,,,,26.485055700002704,None,1,0.3691269000119064,26.485055700002704,None,26.485055700002704,None,t,001,2022-06-21_17h39.30.850,MemoryStudy,2022.1.4,59.96969131935319,
Mem,1,donut.jpg,P,P,JPG\,donut,C:\\Users\\Psychology\\Documents\\ABExperiment\\MemoryStudy\\resources\\JPG\\donut.jpg,C:\\Users\\Psychology\\Documents\\ABExperiment\\MemoryStudy\\resources\\JPG\\,0,39,39,39,,,,,,,26.884953700006008,None,1,0.3782315999997081,26.884953700006008,None,26.884953700006008,None,t,001,2022-06-21_17h39.30.850,MemoryStudy,2022.1.4,59.96969131935319,
Mem,1,eiffeltower.jpg,P,P,JPG\,eiffeltower,C:\\Users\\Psychology\\Documents\\ABExperiment\\MemoryStudy\\resources\\JPG\\eiffeltower.jpg,C:\\Users\\Psychology\\Documents\\ABExperiment\\MemoryStudy\\resources\\JPG\\,0,40,40,40,,,,,,,27.285149100003764,None,1,0.3609509999951115,27.285149100003764,None,27.285149100003764,None,t,001,2022-06-21_17h39.30.850,MemoryStudy,2022.1.4,59.96969131935319,
Mem,1,exitsign.jpg,P,P,JPG\,exitsign,C:\\Users\\Psychology\\Documents\\ABExperiment\\MemoryStudy\\resources\\JPG\\exitsign.jpg,C:\\Users\\Psychology\\Documents\\ABExperiment\\MemoryStudy\\resources\\JPG\\,0,41,41,41,,,,,,,27.669110700007877,None,1,0.36984379999921657,27.669110700007877,None,27.669110700007877,None,t,001,2022-06-21_17h39.30.850,MemoryStudy,2022.1.4,59.96969131935319,
Mem,1,fortunecookie.jpg,P,P,JPG\,fortunecookie,C:\\Users\\Psychology\\Documents\\ABExperiment\\MemoryStudy\\resources\\JPG\\fortunecookie.jpg,C:\\Users\\Psychology\\Documents\\ABExperiment\\MemoryStudy\\resources\\JPG\\,0,42,42,42,,,,,,,28.0696631000028,None,1,0.3294547999976203,28.0696631000028,None,28.0696631000028,None,t,001,2022-06-21_17h39.30.850,MemoryStudy,2022.1.4,59.96969131935319,
Mem,1,harmonica.jpg,P,P,JPG\,harmonica,C:\\Users\\Psychology\\Documents\\ABExperiment\\MemoryStudy\\resources\\JPG\\harmonica.jpg,C:\\Users\\Psychology\\Documents\\ABExperiment\\MemoryStudy\\resources\\JPG\\,0,43,43,43,,,,,,,28.419798200004152,None,1,0.3544313000020338,28.419798200004152,None,28.419798200004152,None,t,001,2022-06-21_17h39.30.850,MemoryStudy,2022.1.4,59.96969131935319,
Mem,1,doghouse.jpg,P,P,JPG\,doghouse,C:\\Users\\Psychology\\Documents\\ABExperiment\\MemoryStudy\\resources\\JPG\\doghouse.jpg,C:\\Users\\Psychology\\Documents\\ABExperiment\\MemoryStudy\\resources\\JPG\\,0,44,44,44,,,,,,,28.803689200009103,None,1,0.39524850000452716,28.803689200009103,None,28.803689200009103,None,t,001,2022-06-21_17h39.30.850,MemoryStudy,2022.1.4,59.96969131935319,
Mem,1,ladder.jpg,P,P,JPG\,ladder,C:\\Users\\Psychology\\Documents\\ABExperiment\\MemoryStudy\\resources\\JPG\\ladder.jpg,C:\\Users\\Psychology\\Documents\\ABExperiment\\MemoryStudy\\resources\\JPG\\,0,45,45,45,,,,,,,29.220743300000322,None,1,0.37025639999774285,29.220743300000322,None,29.220743300000322,None,t,001,2022-06-21_17h39.30.850,MemoryStudy,2022.1.4,59.96969131935319,
Mem,1,lawnmower.jpg,P,P,JPG\,lawnmower,C:\\Users\\Psychology\\Documents\\ABExperiment\\MemoryStudy\\resources\\JPG\\lawnmower.jpg,C:\\Users\\Psychology\\Documents\\ABExperiment\\MemoryStudy\\resources\\JPG\\,0,46,46,46,,,,,,,29.621074900001986,None,1,0.9208537000085926,29.621074900001986,None,29.621074900001986,None,t,001,2022-06-21_17h39.30.850,MemoryStudy,2022.1.4,59.96969131935319,
Mem,1,parkingsign.jpg,P,P,JPG\,parkingsign,C:\\Users\\Psychology\\Documents\\ABExperiment\\MemoryStudy\\resources\\JPG\\parkingsign.jpg,C:\\Users\\Psychology\\Documents\\ABExperiment\\MemoryStudy\\resources\\JPG\\,0,47,47,47,,,,,,,30.57010799999989,None,1,0.8604660999990301,30.57010799999989,None,30.57010799999989,None,t,001,2022-06-21_17h39.30.850,MemoryStudy,2022.1.4,59.96969131935319,
Mem,1,skunk.jpg,P,P,JPG\,skunk,C:\\Users\\Psychology\\Documents\\ABExperiment\\MemoryStudy\\resources\\JPG\\skunk.jpg,C:\\Users\\Psychology\\Documents\\ABExperiment\\MemoryStudy\\resources\\JPG\\,0,48,48,48,,,,,,,31.46150900000066,None,1,0.425080800006981,31.46150900000066,None,31.46150900000066,None,t,001,2022-06-21_17h39.30.850,MemoryStudy,2022.1.4,59.96969131935319,
Mem,1,snowboard.jpg,P,P,JPG\,snowboard,C:\\Users\\Psychology\\Documents\\ABExperiment\\MemoryStudy\\resources\\JPG\\snowboard.jpg,C:\\Users\\Psychology\\Documents\\ABExperiment\\MemoryStudy\\resources\\JPG\\,0,49,49,49,,,,,,,31.910112700003083,None,1,0.384434899999178,31.910112700003083,None,31.910112700003083,None,t,001,2022-06-21_17h39.30.850,MemoryStudy,2022.1.4,59.96969131935319,
Mem,1,tiger02.jpg,P,P,JPG\,tiger02,C:\\Users\\Psychology\\Documents\\ABExperiment\\MemoryStudy\\resources\\JPG\\tiger02.jpg,C:\\Users\\Psychology\\Documents\\ABExperiment\\MemoryStudy\\resources\\JPG\\,0,50,50,50,,,,,,,32.331207300012466,None,1,0.37133369999355637,32.331207300012466,None,32.331207300012466,None,t,001,2022-06-21_17h39.30.850,MemoryStudy,2022.1.4,59.96969131935319,
Mem,1,tree.jpg,P,P,JPG\,tree,C:\\Users\\Psychology\\Documents\\ABExperiment\\MemoryStudy\\resources\\JPG\\tree.jpg,C:\\Users\\Psychology\\Documents\\ABExperiment\\MemoryStudy\\resources\\JPG\\,0,51,51,51,,,,,,,32.735923800006276,None,1,0.35058379999827594,32.735923800006276,None,32.735923800006276,None,t,001,2022-06-21_17h39.30.850,MemoryStudy,2022.1.4,59.96969131935319,
Mem,1,waterfall.jpg,P,P,JPG\,waterfall,C:\\Users\\Psychology\\Documents\\ABExperiment\\MemoryStudy\\resources\\JPG\\waterfall.jpg,C:\\Users\\Psychology\\Documents\\ABExperiment\\MemoryStudy\\resources\\JPG\\,0,52,52,52,,,,,,,33.116561400005594,None,1,0.3541067999904044,33.116561400005594,None,33.116561400005594,None,t,001,2022-06-21_17h39.30.850,MemoryStudy,2022.1.4,59.96969131935319,
Mem,1,bow.jpg,P,P,JPG\,bow,C:\\Users\\Psychology\\Documents\\ABExperiment\\MemoryStudy\\resources\\JPG\\bow.jpg,C:\\Users\\Psychology\\Documents\\ABExperiment\\MemoryStudy\\resources\\JPG\\,0,53,53,53,,,,,,,33.49820410000393,None,1,0.41327459999592975,33.49820410000393,None,33.49820410000393,None,t,001,2022-06-21_17h39.30.850,MemoryStudy,2022.1.4,59.96969131935319,
Mem,1,arugula.jpg,P,P,JPG\,arugula,C:\\Users\\Psychology\\Documents\\ABExperiment\\MemoryStudy\\resources\\JPG\\arugula.jpg,C:\\Users\\Psychology\\Documents\\ABExperiment\\MemoryStudy\\resources\\JPG\\,0,54,54,54,,,,,,,34.058679200010374,None,1,0.36475910000444856,34.058679200010374,None,34.058679200010374,None,t,001,2022-06-21_17h39.30.850,MemoryStudy,2022.1.4,59.96969131935319,
Mem,1,beaver.jpg,P,P,JPG\,beaver,C:\\Users\\Psychology\\Documents\\ABExperiment\\MemoryStudy\\resources\\JPG\\beaver.jpg,C:\\Users\\Psychology\\Documents\\ABExperiment\\MemoryStudy\\resources\\JPG\\,0,55,55,55,,,,,,,34.444175800002995,None,1,0.4424870000075316,34.444175800002995,None,34.444175800002995,None,t,001,2022-06-21_17h39.30.850,MemoryStudy,2022.1.4,59.96969131935319,
Mem,1,snowglobe.jpg,P,P,JPG\,snowglobe,C:\\Users\\Psychology\\Documents\\ABExperiment\\MemoryStudy\\resources\\JPG\\snowglobe.jpg,C:\\Users\\Psychology\\Documents\\ABExperiment\\MemoryStudy\\resources\\JPG\\,0,56,56,56,,,,,,,35.00262670000666,None,1,0.435964000003878,35.00262670000666,None,35.00262670000666,None,t,001,2022-06-21_17h39.30.850,MemoryStudy,2022.1.4,59.96969131935319,
Mem,1,bullet.jpg,P,P,JPG\,bullet,C:\\Users\\Psychology\\Documents\\ABExperiment\\MemoryStudy\\resources\\JPG\\bullet.jpg,C:\\Users\\Psychology\\Documents\\ABExperiment\\MemoryStudy\\resources\\JPG\\,0,57,57,57,,,,,,,35.461352300000726,None,1,0.40910649999568705,35.461352300000726,None,35.461352300000726,None,t,001,2022-06-21_17h39.30.850,MemoryStudy,2022.1.4,59.96969131935319,
Mem,1,cactus.jpg,P,P,JPG\,cactus,C:\\Users\\Psychology\\Documents\\ABExperiment\\MemoryStudy\\resources\\JPG\\cactus.jpg,C:\\Users\\Psychology\\Documents\\ABExperiment\\MemoryStudy\\resources\\JPG\\,0,58,58,58,,,,,,,35.90858350000053,None,1,0.369489100005012,35.90858350000053,None,35.90858350000053,None,t,001,2022-06-21_17h39.30.850,MemoryStudy,2022.1.4,59.96969131935319,
Mem,1,cow.jpg,P,P,JPG\,cow,C:\\Users\\Psychology\\Documents\\ABExperiment\\MemoryStudy\\resources\\JPG\\cow.jpg,C:\\Users\\Psychology\\Documents\\ABExperiment\\MemoryStudy\\resources\\JPG\\,0,59,59,59,,,,,,,36.31112600000051,None,1,0.3197687999927439,36.31112600000051,None,36.31112600000051,None,t,001,2022-06-21_17h39.30.850,MemoryStudy,2022.1.4,59.96969131935319,
Mem,1,discoball.jpg,P,P,JPG\,discoball,C:\\Users\\Psychology\\Documents\\ABExperiment\\MemoryStudy\\resources\\JPG\\discoball.jpg,C:\\Users\\Psychology\\Documents\\ABExperiment\\MemoryStudy\\resources\\JPG\\,0,60,60,60,,,,,,,36.66275590000441,None,1,0.3199588000134099,36.66275590000441,None,36.66275590000441,None,t,001,2022-06-21_17h39.30.850,MemoryStudy,2022.1.4,59.96969131935319,
Mem,1,drumstick.jpg,P,P,JPG\,drumstick,C:\\Users\\Psychology\\Documents\\ABExperiment\\MemoryStudy\\resources\\JPG\\drumstick.jpg,C:\\Users\\Psychology\\Documents\\ABExperiment\\MemoryStudy\\resources\\JPG\\,0,61,61,61,,,,,,,37.012336500003585,None,1,0.34613779999199323,37.012336500003585,None,37.012336500003585,None,t,001,2022-06-21_17h39.30.850,MemoryStudy,2022.1.4,59.96969131935319,
Mem,1,fingerprint.jpg,P,P,JPG\,fingerprint,C:\\Users\\Psychology\\Documents\\ABExperiment\\MemoryStudy\\resources\\JPG\\fingerprint.jpg,C:\\Users\\Psychology\\Documents\\ABExperiment\\MemoryStudy\\resources\\JPG\\,0,62,62,62,,,,,,,37.379113400005735,None,1,0.34712569999101106,37.379113400005735,None,37.379113400005735,None,t,001,2022-06-21_17h39.30.850,MemoryStudy,2022.1.4,59.96969131935319,
Mem,1,hockeystick.jpg,P,P,JPG\,hockeystick,C:\\Users\\Psychology\\Documents\\ABExperiment\\MemoryStudy\\resources\\JPG\\hockeystick.jpg,C:\\Users\\Psychology\\Documents\\ABExperiment\\MemoryStudy\\resources\\JPG\\,0,63,63,63,,,,,,,37.746129200008,None,1,0.34090870000363793,37.746129200008,None,37.746129200008,None,t,001,2022-06-21_17h39.30.850,MemoryStudy,2022.1.4,59.96969131935319,
Mem,1,hulahoop.jpg,P,P,JPG\,hulahoop,C:\\Users\\Psychology\\Documents\\ABExperiment\\MemoryStudy\\resources\\JPG\\hulahoop.jpg,C:\\Users\\Psychology\\Documents\\ABExperiment\\MemoryStudy\\resources\\JPG\\,0,64,64,64,,,,,,,38.112989500004915,None,1,0.3499015999987023,38.112989500004915,None,38.112989500004915,None,t,001,2022-06-21_17h39.30.850,MemoryStudy,2022.1.4,59.96969131935319,
Mem,1,ladybug03.jpg,P,P,JPG\,ladybug03,C:\\Users\\Psychology\\Documents\\ABExperiment\\MemoryStudy\\resources\\JPG\\ladybug03.jpg,C:\\Users\\Psychology\\Documents\\ABExperiment\\MemoryStudy\\resources\\JPG\\,0,65,65,65,,,,,,,38.49637180000718,None,1,0.3104464999923948,38.49637180000718,None,38.49637180000718,None,t,001,2022-06-21_17h39.30.850,MemoryStudy,2022.1.4,59.96969131935319,
Mem,1,magneticcompass.jpg,P,P,JPG\,magneticcompass,C:\\Users\\Psychology\\Documents\\ABExperiment\\MemoryStudy\\resources\\JPG\\magneticcompass.jpg,C:\\Users\\Psychology\\Documents\\ABExperiment\\MemoryStudy\\resources\\JPG\\,0,66,66,66,,,,,,,38.83126540000376,None,1,0.31077949999598786,38.83126540000376,None,38.83126540000376,None,t,001,2022-06-21_17h39.30.850,MemoryStudy,2022.1.4,59.96969131935319,
Mem,1,moose.jpg,P,P,JPG\,moose,C:\\Users\\Psychology\\Documents\\ABExperiment\\MemoryStudy\\resources\\JPG\\moose.jpg,C:\\Users\\Psychology\\Documents\\ABExperiment\\MemoryStudy\\resources\\JPG\\,0,67,67,67,,,,,,,39.164585300008184,None,1,0.3312933000124758,39.164585300008184,None,39.164585300008184,None,t,001,2022-06-21_17h39.30.850,MemoryStudy,2022.1.4,59.96969131935319,
Mem,1,peacock.jpg,P,P,JPG\,peacock,C:\\Users\\Psychology\\Documents\\ABExperiment\\MemoryStudy\\resources\\JPG\\peacock.jpg,C:\\Users\\Psychology\\Documents\\ABExperiment\\MemoryStudy\\resources\\JPG\\,0,68,68,68,,,,,,,39.53174210000725,None,1,0.31505079999624286,39.53174210000725,None,39.53174210000725,None,t,001,2022-06-21_17h39.30.850,MemoryStudy,2022.1.4,59.96969131935319,
Mem,1,rooster.jpg,P,P,JPG\,rooster,C:\\Users\\Psychology\\Documents\\ABExperiment\\MemoryStudy\\resources\\JPG\\rooster.jpg,C:\\Users\\Psychology\\Documents\\ABExperiment\\MemoryStudy\\resources\\JPG\\,0,69,69,69,,,,,,,39.88166890000866,None,1,0.3248533000005409,39.88166890000866,None,39.88166890000866,None,t,001,2022-06-21_17h39.30.850,MemoryStudy,2022.1.4,59.96969131935319,
Mem,1,sandcastle.jpg,P,P,JPG\,sandcastle,C:\\Users\\Psychology\\Documents\\ABExperiment\\MemoryStudy\\resources\\JPG\\sandcastle.jpg,C:\\Users\\Psychology\\Documents\\ABExperiment\\MemoryStudy\\resources\\JPG\\,0,70,70,70,,,,,,,40.231855100006214,None,1,0.3185438000073191,40.231855100006214,None,40.231855100006214,None,t,001,2022-06-21_17h39.30.850,MemoryStudy,2022.1.4,59.96969131935319,
Mem,1,sheep.jpg,P,P,JPG\,sheep,C:\\Users\\Psychology\\Documents\\ABExperiment\\MemoryStudy\\resources\\JPG\\sheep.jpg,C:\\Users\\Psychology\\Documents\\ABExperiment\\MemoryStudy\\resources\\JPG\\,0,71,71,71,,,,,,,40.583139800000936,None,1,0.29604689999541733,40.583139800000936,None,40.583139800000936,None,t,001,2022-06-21_17h39.30.850,MemoryStudy,2022.1.4,59.96969131935319,
Mem,1,spiderweb.jpg,P,P,JPG\,spiderweb,C:\\Users\\Psychology\\Documents\\ABExperiment\\MemoryStudy\\resources\\JPG\\spiderweb.jpg,C:\\Users\\Psychology\\Documents\\ABExperiment\\MemoryStudy\\resources\\JPG\\,0,72,72,72,,,,,,,40.899196099999244,None,1,0.34693780000088736,40.899196099999244,None,40.899196099999244,None,t,001,2022-06-21_17h39.30.850,MemoryStudy,2022.1.4,59.96969131935319,
Mem,1,trampoline.jpg,P,P,JPG\,trampoline,C:\\Users\\Psychology\\Documents\\ABExperiment\\MemoryStudy\\resources\\JPG\\trampoline.jpg,C:\\Users\\Psychology\\Documents\\ABExperiment\\MemoryStudy\\resources\\JPG\\,0,73,73,73,,,,,,,41.26624480000464,None,1,0.31566630001179874,41.26624480000464,None,41.26624480000464,None,t,001,2022-06-21_17h39.30.850,MemoryStudy,2022.1.4,59.96969131935319,
Mem,1,trophy01.jpg,P,P,JPG\,trophy01,C:\\Users\\Psychology\\Documents\\ABExperiment\\MemoryStudy\\resources\\JPG\\trophy01.jpg,C:\\Users\\Psychology\\Documents\\ABExperiment\\MemoryStudy\\resources\\JPG\\,0,74,74,74,,,,,,,41.61656200001016,None,1,0.2942452000133926,41.61656200001016,None,41.61656200001016,None,t,001,2022-06-21_17h39.30.850,MemoryStudy,2022.1.4,59.96969131935319,
Mem,1,windmill.jpg,P,P,JPG\,windmill,C:\\Users\\Psychology\\Documents\\ABExperiment\\MemoryStudy\\resources\\JPG\\windmill.jpg,C:\\Users\\Psychology\\Documents\\ABExperiment\\MemoryStudy\\resources\\JPG\\,0,75,75,75,,,,,,,41.93418530000781,None,1,0.30534330000227783,41.93418530000781,None,41.93418530000781,None,t,001,2022-06-21_17h39.30.850,MemoryStudy,2022.1.4,59.96969131935319,
Mem,1,arrow02.jpg,P,P,JPG\,arrow02,C:\\Users\\Psychology\\Documents\\ABExperiment\\MemoryStudy\\resources\\JPG\\arrow02.jpg,C:\\Users\\Psychology\\Documents\\ABExperiment\\MemoryStudy\\resources\\JPG\\,0,76,76,76,,,,,,,42.267510200006654,None,1,0.29901599998993333,42.267510200006654,None,42.267510200006654,None,t,001,2022-06-21_17h39.30.850,MemoryStudy,2022.1.4,59.96969131935319,
Mem,1,birdhouse.jpg,P,P,JPG\,birdhouse,C:\\Users\\Psychology\\Documents\\ABExperiment\\MemoryStudy\\resources\\JPG\\birdhouse.jpg,C:\\Users\\Psychology\\Documents\\ABExperiment\\MemoryStudy\\resources\\JPG\\,0,77,77,77,,,,,,,42.6014656000043,None,1,0.2853679999971064,42.6014656000043,None,42.6014656000043,None,t,001,2022-06-21_17h39.30.850,MemoryStudy,2022.1.4,59.96969131935319,
Mem,1,bridge.jpg,P,P,JPG\,bridge,C:\\Users\\Psychology\\Documents\\ABExperiment\\MemoryStudy\\resources\\JPG\\bridge.jpg,C:\\Users\\Psychology\\Documents\\ABExperiment\\MemoryStudy\\resources\\JPG\\,0,78,78,78,,,,,,,42.91970030000084,None,1,0.2799251000105869,42.91970030000084,None,42.91970030000084,None,t,001,2022-06-21_17h39.30.850,MemoryStudy,2022.1.4,59.96969131935319,
Mem,1,cashregister01.jpg,P,P,JPG\,cashregister01,C:\\Users\\Psychology\\Documents\\ABExperiment\\MemoryStudy\\resources\\JPG\\cashregister01.jpg,C:\\Users\\Psychology\\Documents\\ABExperiment\\MemoryStudy\\resources\\JPG\\,0,79,79,79,,,,,,,43.23580870000296,None,1,0.29873339999176096,43.23580870000296,None,43.23580870000296,None,t,001,2022-06-21_17h39.30.850,MemoryStudy,2022.1.4,59.96969131935319,
Mem,1,dartboard.jpg,P,P,JPG\,dartboard,C:\\Users\\Psychology\\Documents\\ABExperiment\\MemoryStudy\\resources\\JPG\\dartboard.jpg,C:\\Users\\Psychology\\Documents\\ABExperiment\\MemoryStudy\\resources\\JPG\\,0,80,80,80,,,,,,,43.56898470000306,None,1,0.3014701000065543,43.56898470000306,None,43.56898470000306,None,t,001,2022-06-21_17h39.30.850,MemoryStudy,2022.1.4,59.96969131935319,
Mem,1,dreamcatcher.jpg,P,P,JPG\,dreamcatcher,C:\\Users\\Psychology\\Documents\\ABExperiment\\MemoryStudy\\resources\\JPG\\dreamcatcher.jpg,C:\\Users\\Psychology\\Documents\\ABExperiment\\MemoryStudy\\resources\\JPG\\,0,81,81,81,,,,,,,43.902648400006,None,1,0.29571500000020023,43.902648400006,None,43.902648400006,None,t,001,2022-06-21_17h39.30.850,MemoryStudy,2022.1.4,59.96969131935319,
Mem,1,escalator.jpg,P,P,JPG\,escalator,C:\\Users\\Psychology\\Documents\\ABExperiment\\MemoryStudy\\resources\\JPG\\escalator.jpg,C:\\Users\\Psychology\\Documents\\ABExperiment\\MemoryStudy\\resources\\JPG\\,0,82,82,82,,,,,,,44.21908960001019,None,1,0.29143320000730455,44.21908960001019,None,44.21908960001019,None,t,001,2022-06-21_17h39.30.850,MemoryStudy,2022.1.4,59.96969131935319,
Mem,1,firehydrant.jpg,P,P,JPG\,firehydrant,C:\\Users\\Psychology\\Documents\\ABExperiment\\MemoryStudy\\resources\\JPG\\firehydrant.jpg,C:\\Users\\Psychology\\Documents\\ABExperiment\\MemoryStudy\\resources\\JPG\\,0,83,83,83,,,,,,,44.53653500000655,None,1,0.3107616999914171,44.53653500000655,None,44.53653500000655,None,t,001,2022-06-21_17h39.30.850,MemoryStudy,2022.1.4,59.96969131935319,
Mem,1,greatwhiteshark.jpg,P,P,JPG\,greatwhiteshark,C:\\Users\\Psychology\\Documents\\ABExperiment\\MemoryStudy\\resources\\JPG\\greatwhiteshark.jpg,C:\\Users\\Psychology\\Documents\\ABExperiment\\MemoryStudy\\resources\\JPG\\,0,84,84,84,,,,,,,44.87020990000747,None,1,0.2889015999971889,44.87020990000747,None,44.87020990000747,None,t,001,2022-06-21_17h39.30.850,MemoryStudy,2022.1.4,59.96969131935319,
Mem,1,helicopter.jpg,P,P,JPG\,helicopter,C:\\Users\\Psychology\\Documents\\ABExperiment\\MemoryStudy\\resources\\JPG\\helicopter.jpg,C:\\Users\\Psychology\\Documents\\ABExperiment\\MemoryStudy\\resources\\JPG\\,0,85,85,85,,,,,,,45.18709660001332,None,1,0.2669014000130119,45.18709660001332,None,45.18709660001332,None,t,001,2022-06-21_17h39.30.850,MemoryStudy,2022.1.4,59.96969131935319,
