TrialType,Lag,Image,T1PA,T2PA,PicFolder,Picture,FullPathName,FilePath,trials.thisRepN,trials.thisTrialN,trials.thisN,trials.thisIndex,text.started,text.stopped,End_Instructions.keys,End_Instructions.rt,End_Instructions.started,End_Instructions.stopped,MemTest.started,MemTest.stopped,MemResponse.keys,MemResponse.rt,MemResponse.started,MemResponse.stopped,Display.started,Display.stopped,participant,session,date,expName,psychopyVersion,frameRate,
,,,,,,,,,,,,,11.478374900005292,None,space,23.181801600003382,11.478374900005292,None,,,,,,,,,test,001,2022-06-22_11h22.46.055,MemoryStudy,2022.1.4,59.90570841528775,
Mem,1,giraffe.jpg,P,P,JPG\,giraffe,C:\\Users\\Psychology\\Documents\\ABExperiment\\MemoryStudy\\resources\\JPG\\giraffe.jpg,C:\\Users\\Psychology\\Documents\\ABExperiment\\MemoryStudy\\resources\\JPG\\,0,0,0,0,,,,,,,34.88103760001832,None,1,0.7859212000039406,34.88103760001832,None,34.88103760001832,None,test,001,2022-06-22_11h22.46.055,MemoryStudy,2022.1.4,59.90570841528775,
Mem,1,greathornowl.jpg,P,P,JPG\,greathornowl,C:\\Users\\Psychology\\Documents\\ABExperiment\\MemoryStudy\\resources\\JPG\\greathornowl.jpg,C:\\Users\\Psychology\\Documents\\ABExperiment\\MemoryStudy\\resources\\JPG\\,0,1,1,1,,,,,,,35.696152799995616,None,1,0.2505413999897428,35.696152799995616,None,35.696152799995616,None,test,001,2022-06-22_11h22.46.055,MemoryStudy,2022.1.4,59.90570841528775,
Mem,1,candle08b.jpg,P,P,JPG\,candle08b,C:\\Users\\Psychology\\Documents\\ABExperiment\\MemoryStudy\\resources\\JPG\\candle08b.jpg,C:\\Users\\Psychology\\Documents\\ABExperiment\\MemoryStudy\\resources\\JPG\\,0,2,2,2,,,,,,,36.0879208999977,None,1,0.1467846000159625,36.0879208999977,None,36.0879208999977,None,test,001,2022-06-22_11h22.46.055,MemoryStudy,2022.1.4,59.90570841528775,
Mem,1,horse.jpg,P,P,JPG\,horse,C:\\Users\\Psychology\\Documents\\ABExperiment\\MemoryStudy\\resources\\JPG\\horse.jpg,C:\\Users\\Psychology\\Documents\\ABExperiment\\MemoryStudy\\resources\\JPG\\,0,3,3,3,,,,,,,36.32608319999417,None,1,0.2680343999818433,36.32608319999417,None,36.32608319999417,None,test,001,2022-06-22_11h22.46.055,MemoryStudy,2022.1.4,59.90570841528775,
Mem,1,snowman.jpg,P,P,JPG\,snowman,C:\\Users\\Psychology\\Documents\\ABExperiment\\MemoryStudy\\resources\\JPG\\snowman.jpg,C:\\Users\\Psychology\\Documents\\ABExperiment\\MemoryStudy\\resources\\JPG\\,0,4,4,4,,,,,,,36.64003830001457,None,1,0.2829576000222005,36.64003830001457,None,36.64003830001457,None,test,001,2022-06-22_11h22.46.055,MemoryStudy,2022.1.4,59.90570841528775,
Mem,1,squirrel.jpg,P,P,JPG\,squirrel,C:\\Users\\Psychology\\Documents\\ABExperiment\\MemoryStudy\\resources\\JPG\\squirrel.jpg,C:\\Users\\Psychology\\Documents\\ABExperiment\\MemoryStudy\\resources\\JPG\\,0,5,5,5,,,,,,,36.94684550000238,None,1,0.30376190002425574,36.94684550000238,None,36.94684550000238,None,test,001,2022-06-22_11h22.46.055,MemoryStudy,2022.1.4,59.90570841528775,
Mem,1,firtree.jpg,P,P,JPG\,firtree,C:\\Users\\Psychology\\Documents\\ABExperiment\\MemoryStudy\\resources\\JPG\\firtree.jpg,C:\\Users\\Psychology\\Documents\\ABExperiment\\MemoryStudy\\resources\\JPG\\,0,6,6,6,,,,,,,37.393510199995944,None,1,0.16228610000689514,37.393510199995944,None,37.393510199995944,None,test,001,2022-06-22_11h22.46.055,MemoryStudy,2022.1.4,59.90570841528775,
Mem,1,bowlingball.jpg,P,P,JPG\,bowlingball,C:\\Users\\Psychology\\Documents\\ABExperiment\\MemoryStudy\\resources\\JPG\\bowlingball.jpg,C:\\Users\\Psychology\\Documents\\ABExperiment\\MemoryStudy\\resources\\JPG\\,0,7,7,7,,,,,,,37.580775100010214,None,1,0.3179579999996349,37.580775100010214,None,37.580775100010214,None,test,001,2022-06-22_11h22.46.055,MemoryStudy,2022.1.4,59.90570841528775,
Mem,1,bowlingpin.jpg,P,P,JPG\,bowlingpin,C:\\Users\\Psychology\\Documents\\ABExperiment\\MemoryStudy\\resources\\JPG\\bowlingpin.jpg,C:\\Users\\Psychology\\Documents\\ABExperiment\\MemoryStudy\\resources\\JPG\\,0,8,8,8,,,,,,,37.931112200021744,None,1,0.2874940999899991,37.931112200021744,None,37.931112200021744,None,test,001,2022-06-22_11h22.46.055,MemoryStudy,2022.1.4,59.90570841528775,
Mem,1,candycane01a.jpg,P,P,JPG\,candycane01a,C:\\Users\\Psychology\\Documents\\ABExperiment\\MemoryStudy\\resources\\JPG\\candycane01a.jpg,C:\\Users\\Psychology\\Documents\\ABExperiment\\MemoryStudy\\resources\\JPG\\,0,9,9,9,,,,,,,38.248098900017794,None,1,0.2993072000099346,38.248098900017794,None,38.248098900017794,None,test,001,2022-06-22_11h22.46.055,MemoryStudy,2022.1.4,59.90570841528775,
Mem,1,dolphin01.jpg,P,P,JPG\,dolphin01,C:\\Users\\Psychology\\Documents\\ABExperiment\\MemoryStudy\\resources\\JPG\\dolphin01.jpg,C:\\Users\\Psychology\\Documents\\ABExperiment\\MemoryStudy\\resources\\JPG\\,0,10,10,10,,,,,,,38.5920626000152,None,1,0.30622030002996325,38.5920626000152,None,38.5920626000152,None,test,001,2022-06-22_11h22.46.055,MemoryStudy,2022.1.4,59.90570841528775,
Mem,1,dromedary.jpg,P,P,JPG\,dromedary,C:\\Users\\Psychology\\Documents\\ABExperiment\\MemoryStudy\\resources\\JPG\\dromedary.jpg,C:\\Users\\Psychology\\Documents\\ABExperiment\\MemoryStudy\\resources\\JPG\\,0,11,11,11,,,,,,,38.93210299999919,None,1,0.36607960000401363,38.93210299999919,None,38.93210299999919,None,test,001,2022-06-22_11h22.46.055,MemoryStudy,2022.1.4,59.90570841528775,
Mem,1,football.jpg,P,P,JPG\,football,C:\\Users\\Psychology\\Documents\\ABExperiment\\MemoryStudy\\resources\\JPG\\football.jpg,C:\\Users\\Psychology\\Documents\\ABExperiment\\MemoryStudy\\resources\\JPG\\,0,12,12,12,,,,,,,39.332573399995454,None,1,0.35939450000296347,39.332573399995454,None,39.332573399995454,None,test,001,2022-06-22_11h22.46.055,MemoryStudy,2022.1.4,59.90570841528775,
Mem,1,golfball.jpg,P,P,JPG\,golfball,C:\\Users\\Psychology\\Documents\\ABExperiment\\MemoryStudy\\resources\\JPG\\golfball.jpg,C:\\Users\\Psychology\\Documents\\ABExperiment\\MemoryStudy\\resources\\JPG\\,0,13,13,13,,,,,,,39.71627200001967,None,1,0.3265755999891553,39.71627200001967,None,39.71627200001967,None,test,001,2022-06-22_11h22.46.055,MemoryStudy,2022.1.4,59.90570841528775,
Mem,1,guitarcase.jpg,P,P,JPG\,guitarcase,C:\\Users\\Psychology\\Documents\\ABExperiment\\MemoryStudy\\resources\\JPG\\guitarcase.jpg,C:\\Users\\Psychology\\Documents\\ABExperiment\\MemoryStudy\\resources\\JPG\\,0,14,14,14,,,,,,,40.06657100000302,None,1,0.32819320002454333,40.06657100000302,None,40.06657100000302,None,test,001,2022-06-22_11h22.46.055,MemoryStudy,2022.1.4,59.90570841528775,
Mem,1,jellybean.jpg,P,P,JPG\,jellybean,C:\\Users\\Psychology\\Documents\\ABExperiment\\MemoryStudy\\resources\\JPG\\jellybean.jpg,C:\\Users\\Psychology\\Documents\\ABExperiment\\MemoryStudy\\resources\\JPG\\,0,15,15,15,,,,,,,40.41693780000787,None,1,0.32187290000729263,40.41693780000787,None,40.41693780000787,None,test,001,2022-06-22_11h22.46.055,MemoryStudy,2022.1.4,59.90570841528775,
Mem,1,kangaroo.jpg,P,P,JPG\,kangaroo,C:\\Users\\Psychology\\Documents\\ABExperiment\\MemoryStudy\\resources\\JPG\\kangaroo.jpg,C:\\Users\\Psychology\\Documents\\ABExperiment\\MemoryStudy\\resources\\JPG\\,0,16,16,16,,,,,,,40.76725629999419,None,1,0.2915414999879431,40.76725629999419,None,40.76725629999419,None,test,001,2022-06-22_11h22.46.055,MemoryStudy,2022.1.4,59.90570841528775,
Mem,1,kite.jpg,P,P,JPG\,kite,C:\\Users\\Psychology\\Documents\\ABExperiment\\MemoryStudy\\resources\\JPG\\kite.jpg,C:\\Users\\Psychology\\Documents\\ABExperiment\\MemoryStudy\\resources\\JPG\\,0,17,17,17,,,,,,,41.084262699994724,None,1,0.36626280000200495,41.084262699994724,None,41.084262699994724,None,test,001,2022-06-22_11h22.46.055,MemoryStudy,2022.1.4,59.90570841528775,
Mem,1,lightswitch01.jpg,P,P,JPG\,lightswitch01,C:\\Users\\Psychology\\Documents\\ABExperiment\\MemoryStudy\\resources\\JPG\\lightswitch01.jpg,C:\\Users\\Psychology\\Documents\\ABExperiment\\MemoryStudy\\resources\\JPG\\,0,18,18,18,,,,,,,41.48460490000434,None,1,0.3264453000156209,41.48460490000434,None,41.48460490000434,None,test,001,2022-06-22_11h22.46.055,MemoryStudy,2022.1.4,59.90570841528775,
Mem,1,locker.jpg,P,P,JPG\,locker,C:\\Users\\Psychology\\Documents\\ABExperiment\\MemoryStudy\\resources\\JPG\\locker.jpg,C:\\Users\\Psychology\\Documents\\ABExperiment\\MemoryStudy\\resources\\JPG\\,0,19,19,19,,,,,,,41.83504570001969,None,1,0.31198030000086874,41.83504570001969,None,41.83504570001969,None,test,001,2022-06-22_11h22.46.055,MemoryStudy,2022.1.4,59.90570841528775,
Mem,1,mailbox01.jpg,P,P,JPG\,mailbox01,C:\\Users\\Psychology\\Documents\\ABExperiment\\MemoryStudy\\resources\\JPG\\mailbox01.jpg,C:\\Users\\Psychology\\Documents\\ABExperiment\\MemoryStudy\\resources\\JPG\\,0,20,20,20,,,,,,,42.27573520000442,None,1,0.20763170000282116,42.27573520000442,None,42.27573520000442,None,test,001,2022-06-22_11h22.46.055,MemoryStudy,2022.1.4,59.90570841528775,
Mem,1,mailbox02.jpg,P,P,JPG\,mailbox02,C:\\Users\\Psychology\\Documents\\ABExperiment\\MemoryStudy\\resources\\JPG\\mailbox02.jpg,C:\\Users\\Psychology\\Documents\\ABExperiment\\MemoryStudy\\resources\\JPG\\,0,21,21,21,,,,,,,42.507617299997946,None,1,0.31057820000569336,42.507617299997946,None,42.507617299997946,None,test,001,2022-06-22_11h22.46.055,MemoryStudy,2022.1.4,59.90570841528775,
Mem,1,mattress.jpg,P,P,JPG\,mattress,C:\\Users\\Psychology\\Documents\\ABExperiment\\MemoryStudy\\resources\\JPG\\mattress.jpg,C:\\Users\\Psychology\\Documents\\ABExperiment\\MemoryStudy\\resources\\JPG\\,0,22,22,22,,,,,,,42.852663500001654,None,1,0.30172860002494417,42.852663500001654,None,42.852663500001654,None,test,001,2022-06-22_11h22.46.055,MemoryStudy,2022.1.4,59.90570841528775,
Mem,1,pumpkin.jpg,P,P,JPG\,pumpkin,C:\\Users\\Psychology\\Documents\\ABExperiment\\MemoryStudy\\resources\\JPG\\pumpkin.jpg,C:\\Users\\Psychology\\Documents\\ABExperiment\\MemoryStudy\\resources\\JPG\\,0,23,23,23,,,,,,,43.18710150002153,None,1,0.30405980002251454,43.18710150002153,None,43.18710150002153,None,test,001,2022-06-22_11h22.46.055,MemoryStudy,2022.1.4,59.90570841528775,
Mem,1,schoolbus.jpg,P,P,JPG\,schoolbus,C:\\Users\\Psychology\\Documents\\ABExperiment\\MemoryStudy\\resources\\JPG\\schoolbus.jpg,C:\\Users\\Psychology\\Documents\\ABExperiment\\MemoryStudy\\resources\\JPG\\,0,24,24,24,,,,,,,43.520022200013045,None,1,0.322336000012001,43.520022200013045,None,43.520022200013045,None,test,001,2022-06-22_11h22.46.055,MemoryStudy,2022.1.4,59.90570841528775,
Mem,1,skateboard.jpg,P,P,JPG\,skateboard,C:\\Users\\Psychology\\Documents\\ABExperiment\\MemoryStudy\\resources\\JPG\\skateboard.jpg,C:\\Users\\Psychology\\Documents\\ABExperiment\\MemoryStudy\\resources\\JPG\\,0,25,25,25,,,,,,,43.885377400001744,None,1,0.29351040002075024,43.885377400001744,None,43.885377400001744,None,test,001,2022-06-22_11h22.46.055,MemoryStudy,2022.1.4,59.90570841528775,
Mem,1,soccerball.jpg,P,P,JPG\,soccerball,C:\\Users\\Psychology\\Documents\\ABExperiment\\MemoryStudy\\resources\\JPG\\soccerball.jpg,C:\\Users\\Psychology\\Documents\\ABExperiment\\MemoryStudy\\resources\\JPG\\,0,26,26,26,,,,,,,44.21151310001733,None,1,0.3112877999956254,44.21151310001733,None,44.21151310001733,None,test,001,2022-06-22_11h22.46.055,MemoryStudy,2022.1.4,59.90570841528775,
Mem,1,wheelchair.jpg,P,P,JPG\,wheelchair,C:\\Users\\Psychology\\Documents\\ABExperiment\\MemoryStudy\\resources\\JPG\\wheelchair.jpg,C:\\Users\\Psychology\\Documents\\ABExperiment\\MemoryStudy\\resources\\JPG\\,0,27,27,27,,,,,,,44.55437320002238,None,1,0.32013999999617226,44.55437320002238,None,44.55437320002238,None,test,001,2022-06-22_11h22.46.055,MemoryStudy,2022.1.4,59.90570841528775,
Mem,1,zebra.jpg,P,P,JPG\,zebra,C:\\Users\\Psychology\\Documents\\ABExperiment\\MemoryStudy\\resources\\JPG\\zebra.jpg,C:\\Users\\Psychology\\Documents\\ABExperiment\\MemoryStudy\\resources\\JPG\\,0,28,28,28,,,,,,,44.904793800000334,None,1,0.32177099998807535,44.904793800000334,None,44.904793800000334,None,test,001,2022-06-22_11h22.46.055,MemoryStudy,2022.1.4,59.90570841528775,
Mem,1,pooltable.jpg,P,P,JPG\,pooltable,C:\\Users\\Psychology\\Documents\\ABExperiment\\MemoryStudy\\resources\\JPG\\pooltable.jpg,C:\\Users\\Psychology\\Documents\\ABExperiment\\MemoryStudy\\resources\\JPG\\,0,29,29,29,,,,,,,45.2550964000111,None,1,0.3161414999922272,45.2550964000111,None,45.2550964000111,None,test,001,2022-06-22_11h22.46.055,MemoryStudy,2022.1.4,59.90570841528775,
Mem,1,swing.jpg,P,P,JPG\,swing,C:\\Users\\Psychology\\Documents\\ABExperiment\\MemoryStudy\\resources\\JPG\\swing.jpg,C:\\Users\\Psychology\\Documents\\ABExperiment\\MemoryStudy\\resources\\JPG\\,0,30,30,30,,,,,,,45.615735700004734,None,1,0.2827065000019502,45.615735700004734,None,45.615735700004734,None,test,001,2022-06-22_11h22.46.055,MemoryStudy,2022.1.4,59.90570841528775,
Mem,1,africanelephant.jpg,P,P,JPG\,africanelephant,C:\\Users\\Psychology\\Documents\\ABExperiment\\MemoryStudy\\resources\\JPG\\africanelephant.jpg,C:\\Users\\Psychology\\Documents\\ABExperiment\\MemoryStudy\\resources\\JPG\\,0,31,31,31,,,,,,,45.922463800001424,None,1,0.35221699997782707,45.922463800001424,None,45.922463800001424,None,test,001,2022-06-22_11h22.46.055,MemoryStudy,2022.1.4,59.90570841528775,
Mem,1,apron.jpg,P,P,JPG\,apron,C:\\Users\\Psychology\\Documents\\ABExperiment\\MemoryStudy\\resources\\JPG\\apron.jpg,C:\\Users\\Psychology\\Documents\\ABExperiment\\MemoryStudy\\resources\\JPG\\,0,32,32,32,,,,,,,46.30610230000457,None,1,0.9848825999943074,46.30610230000457,None,46.30610230000457,None,test,001,2022-06-22_11h22.46.055,MemoryStudy,2022.1.4,59.90570841528775,
Mem,1,barnowl.jpg,P,P,JPG\,barnowl,C:\\Users\\Psychology\\Documents\\ABExperiment\\MemoryStudy\\resources\\JPG\\barnowl.jpg,C:\\Users\\Psychology\\Documents\\ABExperiment\\MemoryStudy\\resources\\JPG\\,0,33,33,33,,,,,,,47.40685709999525,None,1,0.37214060002588667,47.40685709999525,None,47.40685709999525,None,test,001,2022-06-22_11h22.46.055,MemoryStudy,2022.1.4,59.90570841528775,
Mem,1,basketball01.jpg,P,P,JPG\,basketball01,C:\\Users\\Psychology\\Documents\\ABExperiment\\MemoryStudy\\resources\\JPG\\basketball01.jpg,C:\\Users\\Psychology\\Documents\\ABExperiment\\MemoryStudy\\resources\\JPG\\,0,34,34,34,,,,,,,47.80763100000331,None,1,0.44250890001421794,47.80763100000331,None,47.80763100000331,None,test,001,2022-06-22_11h22.46.055,MemoryStudy,2022.1.4,59.90570841528775,
Mem,1,bat.jpg,P,P,JPG\,bat,C:\\Users\\Psychology\\Documents\\ABExperiment\\MemoryStudy\\resources\\JPG\\bat.jpg,C:\\Users\\Psychology\\Documents\\ABExperiment\\MemoryStudy\\resources\\JPG\\,0,35,35,35,,,,,,,48.27544960001251,None,1,0.43148030003067106,48.27544960001251,None,48.27544960001251,None,test,001,2022-06-22_11h22.46.055,MemoryStudy,2022.1.4,59.90570841528775,
Mem,1,cloud.jpg,P,P,JPG\,cloud,C:\\Users\\Psychology\\Documents\\ABExperiment\\MemoryStudy\\resources\\JPG\\cloud.jpg,C:\\Users\\Psychology\\Documents\\ABExperiment\\MemoryStudy\\resources\\JPG\\,0,36,36,36,,,,,,,48.741467900021235,None,1,0.3662439000036102,48.741467900021235,None,48.741467900021235,None,test,001,2022-06-22_11h22.46.055,MemoryStudy,2022.1.4,59.90570841528775,
Mem,1,crab01.jpg,P,P,JPG\,crab01,C:\\Users\\Psychology\\Documents\\ABExperiment\\MemoryStudy\\resources\\JPG\\crab01.jpg,C:\\Users\\Psychology\\Documents\\ABExperiment\\MemoryStudy\\resources\\JPG\\,0,37,37,37,,,,,,,49.14157370000612,None,1,1.6934611999895424,49.14157370000612,None,49.14157370000612,None,test,001,2022-06-22_11h22.46.055,MemoryStudy,2022.1.4,59.90570841528775,
Mem,1,cupcake.jpg,P,P,JPG\,cupcake,C:\\Users\\Psychology\\Documents\\ABExperiment\\MemoryStudy\\resources\\JPG\\cupcake.jpg,C:\\Users\\Psychology\\Documents\\ABExperiment\\MemoryStudy\\resources\\JPG\\,0,38,38,38,,,,,,,50.863385300006485,None,1,0.3644001000211574,50.863385300006485,None,50.863385300006485,None,test,001,2022-06-22_11h22.46.055,MemoryStudy,2022.1.4,59.90570841528775,
Mem,1,donut.jpg,P,P,JPG\,donut,C:\\Users\\Psychology\\Documents\\ABExperiment\\MemoryStudy\\resources\\JPG\\donut.jpg,C:\\Users\\Psychology\\Documents\\ABExperiment\\MemoryStudy\\resources\\JPG\\,0,39,39,39,,,,,,,51.26104939999641,None,1,0.44576810000580736,51.26104939999641,None,51.26104939999641,None,test,001,2022-06-22_11h22.46.055,MemoryStudy,2022.1.4,59.90570841528775,
Mem,1,eiffeltower.jpg,P,P,JPG\,eiffeltower,C:\\Users\\Psychology\\Documents\\ABExperiment\\MemoryStudy\\resources\\JPG\\eiffeltower.jpg,C:\\Users\\Psychology\\Documents\\ABExperiment\\MemoryStudy\\resources\\JPG\\,0,40,40,40,,,,,,,51.72818060001009,None,1,0.5155877000070177,51.72818060001009,None,51.72818060001009,None,test,001,2022-06-22_11h22.46.055,MemoryStudy,2022.1.4,59.90570841528775,
Mem,1,exitsign.jpg,P,P,JPG\,exitsign,C:\\Users\\Psychology\\Documents\\ABExperiment\\MemoryStudy\\resources\\JPG\\exitsign.jpg,C:\\Users\\Psychology\\Documents\\ABExperiment\\MemoryStudy\\resources\\JPG\\,0,41,41,41,,,,,,,52.278765700000804,None,1,0.8678711000247858,52.278765700000804,None,52.278765700000804,None,test,001,2022-06-22_11h22.46.055,MemoryStudy,2022.1.4,59.90570841528775,
Mem,1,fortunecookie.jpg,P,P,JPG\,fortunecookie,C:\\Users\\Psychology\\Documents\\ABExperiment\\MemoryStudy\\resources\\JPG\\fortunecookie.jpg,C:\\Users\\Psychology\\Documents\\ABExperiment\\MemoryStudy\\resources\\JPG\\,0,42,42,42,,,,,,,53.17966890000389,None,1,0.8240714999847114,53.17966890000389,None,53.17966890000389,None,test,001,2022-06-22_11h22.46.055,MemoryStudy,2022.1.4,59.90570841528775,
Mem,1,harmonica.jpg,P,P,JPG\,harmonica,C:\\Users\\Psychology\\Documents\\ABExperiment\\MemoryStudy\\resources\\JPG\\harmonica.jpg,C:\\Users\\Psychology\\Documents\\ABExperiment\\MemoryStudy\\resources\\JPG\\,0,43,43,43,,,,,,,54.03055960001075,None,1,0.34030989999882877,54.03055960001075,None,54.03055960001075,None,test,001,2022-06-22_11h22.46.055,MemoryStudy,2022.1.4,59.90570841528775,
Mem,1,doghouse.jpg,P,P,JPG\,doghouse,C:\\Users\\Psychology\\Documents\\ABExperiment\\MemoryStudy\\resources\\JPG\\doghouse.jpg,C:\\Users\\Psychology\\Documents\\ABExperiment\\MemoryStudy\\resources\\JPG\\,0,44,44,44,,,,,,,54.397482500004116,None,1,0.34110960000543855,54.397482500004116,None,54.397482500004116,None,test,001,2022-06-22_11h22.46.055,MemoryStudy,2022.1.4,59.90570841528775,
Mem,1,ladder.jpg,P,P,JPG\,ladder,C:\\Users\\Psychology\\Documents\\ABExperiment\\MemoryStudy\\resources\\JPG\\ladder.jpg,C:\\Users\\Psychology\\Documents\\ABExperiment\\MemoryStudy\\resources\\JPG\\,0,45,45,45,,,,,,,54.764514200011035,None,1,0.29406179999932647,54.764514200011035,None,54.764514200011035,None,test,001,2022-06-22_11h22.46.055,MemoryStudy,2022.1.4,59.90570841528775,
Mem,1,lawnmower.jpg,P,P,JPG\,lawnmower,C:\\Users\\Psychology\\Documents\\ABExperiment\\MemoryStudy\\resources\\JPG\\lawnmower.jpg,C:\\Users\\Psychology\\Documents\\ABExperiment\\MemoryStudy\\resources\\JPG\\,0,46,46,46,,,,,,,55.08154889999423,None,1,0.24992380000185221,55.08154889999423,None,55.08154889999423,None,test,001,2022-06-22_11h22.46.055,MemoryStudy,2022.1.4,59.90570841528775,
Mem,1,parkingsign.jpg,P,P,JPG\,parkingsign,C:\\Users\\Psychology\\Documents\\ABExperiment\\MemoryStudy\\resources\\JPG\\parkingsign.jpg,C:\\Users\\Psychology\\Documents\\ABExperiment\\MemoryStudy\\resources\\JPG\\,0,47,47,47,,,,,,,55.36516630000551,None,1,0.26918150001438335,55.36516630000551,None,55.36516630000551,None,test,001,2022-06-22_11h22.46.055,MemoryStudy,2022.1.4,59.90570841528775,
Mem,1,skunk.jpg,P,P,JPG\,skunk,C:\\Users\\Psychology\\Documents\\ABExperiment\\MemoryStudy\\resources\\JPG\\skunk.jpg,C:\\Users\\Psychology\\Documents\\ABExperiment\\MemoryStudy\\resources\\JPG\\,0,48,48,48,,,,,,,55.665441400022246,None,1,0.9370653000078164,55.665441400022246,None,55.665441400022246,None,test,001,2022-06-22_11h22.46.055,MemoryStudy,2022.1.4,59.90570841528775,
Mem,1,snowboard.jpg,P,P,JPG\,snowboard,C:\\Users\\Psychology\\Documents\\ABExperiment\\MemoryStudy\\resources\\JPG\\snowboard.jpg,C:\\Users\\Psychology\\Documents\\ABExperiment\\MemoryStudy\\resources\\JPG\\,0,49,49,49,,,,,,,56.63304879999487,None,1,0.1934142999816686,56.63304879999487,None,56.63304879999487,None,test,001,2022-06-22_11h22.46.055,MemoryStudy,2022.1.4,59.90570841528775,
Mem,1,tiger02.jpg,P,P,JPG\,tiger02,C:\\Users\\Psychology\\Documents\\ABExperiment\\MemoryStudy\\resources\\JPG\\tiger02.jpg,C:\\Users\\Psychology\\Documents\\ABExperiment\\MemoryStudy\\resources\\JPG\\,0,50,50,50,,,,,,,56.849940100015374,None,1,0.2734932999883313,56.849940100015374,None,56.849940100015374,None,test,001,2022-06-22_11h22.46.055,MemoryStudy,2022.1.4,59.90570841528775,
Mem,1,tree.jpg,P,P,JPG\,tree,C:\\Users\\Psychology\\Documents\\ABExperiment\\MemoryStudy\\resources\\JPG\\tree.jpg,C:\\Users\\Psychology\\Documents\\ABExperiment\\MemoryStudy\\resources\\JPG\\,0,51,51,51,,,,,,,57.15025030000834,None,1,1.5880753000092227,57.15025030000834,None,57.15025030000834,None,test,001,2022-06-22_11h22.46.055,MemoryStudy,2022.1.4,59.90570841528775,
Mem,1,waterfall.jpg,P,P,JPG\,waterfall,C:\\Users\\Psychology\\Documents\\ABExperiment\\MemoryStudy\\resources\\JPG\\waterfall.jpg,C:\\Users\\Psychology\\Documents\\ABExperiment\\MemoryStudy\\resources\\JPG\\,0,52,52,52,,,,,,,58.77039380001952,None,1,0.32807460002368316,58.77039380001952,None,58.77039380001952,None,test,001,2022-06-22_11h22.46.055,MemoryStudy,2022.1.4,59.90570841528775,
Mem,1,bow.jpg,P,P,JPG\,bow,C:\\Users\\Psychology\\Documents\\ABExperiment\\MemoryStudy\\resources\\JPG\\bow.jpg,C:\\Users\\Psychology\\Documents\\ABExperiment\\MemoryStudy\\resources\\JPG\\,0,53,53,53,,,,,,,59.11888110000291,None,1,0.34850120000191964,59.11888110000291,None,59.11888110000291,None,test,001,2022-06-22_11h22.46.055,MemoryStudy,2022.1.4,59.90570841528775,
Mem,1,arugula.jpg,P,P,JPG\,arugula,C:\\Users\\Psychology\\Documents\\ABExperiment\\MemoryStudy\\resources\\JPG\\arugula.jpg,C:\\Users\\Psychology\\Documents\\ABExperiment\\MemoryStudy\\resources\\JPG\\,0,54,54,54,,,,,,,59.62885030001053,None,1,0.21392999999807216,59.62885030001053,None,59.62885030001053,None,test,001,2022-06-22_11h22.46.055,MemoryStudy,2022.1.4,59.90570841528775,
Mem,1,beaver.jpg,P,P,JPG\,beaver,C:\\Users\\Psychology\\Documents\\ABExperiment\\MemoryStudy\\resources\\JPG\\beaver.jpg,C:\\Users\\Psychology\\Documents\\ABExperiment\\MemoryStudy\\resources\\JPG\\,0,55,55,55,,,,,,,59.87076170000364,None,1,0.4036633000068832,59.87076170000364,None,59.87076170000364,None,test,001,2022-06-22_11h22.46.055,MemoryStudy,2022.1.4,59.90570841528775,
Mem,1,snowglobe.jpg,P,P,JPG\,snowglobe,C:\\Users\\Psychology\\Documents\\ABExperiment\\MemoryStudy\\resources\\JPG\\snowglobe.jpg,C:\\Users\\Psychology\\Documents\\ABExperiment\\MemoryStudy\\resources\\JPG\\,0,56,56,56,,,,,,,60.40312289999565,None,1,0.16041330000734888,60.40312289999565,None,60.40312289999565,None,test,001,2022-06-22_11h22.46.055,MemoryStudy,2022.1.4,59.90570841528775,
Mem,1,bullet.jpg,P,P,JPG\,bullet,C:\\Users\\Psychology\\Documents\\ABExperiment\\MemoryStudy\\resources\\JPG\\bullet.jpg,C:\\Users\\Psychology\\Documents\\ABExperiment\\MemoryStudy\\resources\\JPG\\,0,57,57,57,,,,,,,60.58853579999413,None,1,0.2463409000192769,60.58853579999413,None,60.58853579999413,None,test,001,2022-06-22_11h22.46.055,MemoryStudy,2022.1.4,59.90570841528775,
Mem,1,cactus.jpg,P,P,JPG\,cactus,C:\\Users\\Psychology\\Documents\\ABExperiment\\MemoryStudy\\resources\\JPG\\cactus.jpg,C:\\Users\\Psychology\\Documents\\ABExperiment\\MemoryStudy\\resources\\JPG\\,0,58,58,58,,,,,,,60.85423990001436,None,1,0.21226539998315275,60.85423990001436,None,60.85423990001436,None,test,001,2022-06-22_11h22.46.055,MemoryStudy,2022.1.4,59.90570841528775,
Mem,1,cow.jpg,P,P,JPG\,cow,C:\\Users\\Psychology\\Documents\\ABExperiment\\MemoryStudy\\resources\\JPG\\cow.jpg,C:\\Users\\Psychology\\Documents\\ABExperiment\\MemoryStudy\\resources\\JPG\\,0,59,59,59,,,,,,,61.08540690000518,None,1,0.19758370000636205,61.08540690000518,None,61.08540690000518,None,test,001,2022-06-22_11h22.46.055,MemoryStudy,2022.1.4,59.90570841528775,
Mem,1,discoball.jpg,P,P,JPG\,discoball,C:\\Users\\Psychology\\Documents\\ABExperiment\\MemoryStudy\\resources\\JPG\\discoball.jpg,C:\\Users\\Psychology\\Documents\\ABExperiment\\MemoryStudy\\resources\\JPG\\,0,60,60,60,,,,,,,61.30437410000013,None,1,0.2186525000142865,61.30437410000013,None,61.30437410000013,None,test,001,2022-06-22_11h22.46.055,MemoryStudy,2022.1.4,59.90570841528775,
Mem,1,drumstick.jpg,P,P,JPG\,drumstick,C:\\Users\\Psychology\\Documents\\ABExperiment\\MemoryStudy\\resources\\JPG\\drumstick.jpg,C:\\Users\\Psychology\\Documents\\ABExperiment\\MemoryStudy\\resources\\JPG\\,0,61,61,61,,,,,,,61.55471860000398,None,1,0.18437500001164153,61.55471860000398,None,61.55471860000398,None,test,001,2022-06-22_11h22.46.055,MemoryStudy,2022.1.4,59.90570841528775,
Mem,1,fingerprint.jpg,P,P,JPG\,fingerprint,C:\\Users\\Psychology\\Documents\\ABExperiment\\MemoryStudy\\resources\\JPG\\fingerprint.jpg,C:\\Users\\Psychology\\Documents\\ABExperiment\\MemoryStudy\\resources\\JPG\\,0,62,62,62,,,,,,,61.77157710000756,None,1,0.19050560001051053,61.77157710000756,None,61.77157710000756,None,test,001,2022-06-22_11h22.46.055,MemoryStudy,2022.1.4,59.90570841528775,
Mem,1,hockeystick.jpg,P,P,JPG\,hockeystick,C:\\Users\\Psychology\\Documents\\ABExperiment\\MemoryStudy\\resources\\JPG\\hockeystick.jpg,C:\\Users\\Psychology\\Documents\\ABExperiment\\MemoryStudy\\resources\\JPG\\,0,63,63,63,,,,,,,61.98783810000168,None,1,0.23858210002072155,61.98783810000168,None,61.98783810000168,None,test,001,2022-06-22_11h22.46.055,MemoryStudy,2022.1.4,59.90570841528775,
Mem,1,hulahoop.jpg,P,P,JPG\,hulahoop,C:\\Users\\Psychology\\Documents\\ABExperiment\\MemoryStudy\\resources\\JPG\\hulahoop.jpg,C:\\Users\\Psychology\\Documents\\ABExperiment\\MemoryStudy\\resources\\JPG\\,0,64,64,64,,,,,,,62.25470889999997,None,1,0.22023610002361238,62.25470889999997,None,62.25470889999997,None,test,001,2022-06-22_11h22.46.055,MemoryStudy,2022.1.4,59.90570841528775,
Mem,1,ladybug03.jpg,P,P,JPG\,ladybug03,C:\\Users\\Psychology\\Documents\\ABExperiment\\MemoryStudy\\resources\\JPG\\ladybug03.jpg,C:\\Users\\Psychology\\Documents\\ABExperiment\\MemoryStudy\\resources\\JPG\\,0,65,65,65,,,,,,,62.5082451000053,None,1,0.21465550002176315,62.5082451000053,None,62.5082451000053,None,test,001,2022-06-22_11h22.46.055,MemoryStudy,2022.1.4,59.90570841528775,
Mem,1,magneticcompass.jpg,P,P,JPG\,magneticcompass,C:\\Users\\Psychology\\Documents\\ABExperiment\\MemoryStudy\\resources\\JPG\\magneticcompass.jpg,C:\\Users\\Psychology\\Documents\\ABExperiment\\MemoryStudy\\resources\\JPG\\,0,66,66,66,,,,,,,62.75634200000786,None,1,0.22348840002086945,62.75634200000786,None,62.75634200000786,None,test,001,2022-06-22_11h22.46.055,MemoryStudy,2022.1.4,59.90570841528775,
Mem,1,moose.jpg,P,P,JPG\,moose,C:\\Users\\Psychology\\Documents\\ABExperiment\\MemoryStudy\\resources\\JPG\\moose.jpg,C:\\Users\\Psychology\\Documents\\ABExperiment\\MemoryStudy\\resources\\JPG\\,0,67,67,67,,,,,,,63.006492600019556,None,1,0.1882218999962788,63.006492600019556,None,63.006492600019556,None,test,001,2022-06-22_11h22.46.055,MemoryStudy,2022.1.4,59.90570841528775,
Mem,1,peacock.jpg,P,P,JPG\,peacock,C:\\Users\\Psychology\\Documents\\ABExperiment\\MemoryStudy\\resources\\JPG\\peacock.jpg,C:\\Users\\Psychology\\Documents\\ABExperiment\\MemoryStudy\\resources\\JPG\\,0,68,68,68,,,,,,,63.22336160001578,None,1,0.26737950000097044,63.22336160001578,None,63.22336160001578,None,test,001,2022-06-22_11h22.46.055,MemoryStudy,2022.1.4,59.90570841528775,
Mem,1,rooster.jpg,P,P,JPG\,rooster,C:\\Users\\Psychology\\Documents\\ABExperiment\\MemoryStudy\\resources\\JPG\\rooster.jpg,C:\\Users\\Psychology\\Documents\\ABExperiment\\MemoryStudy\\resources\\JPG\\,0,69,69,69,,,,,,,63.523642300016945,None,1,0.13500169999315403,63.523642300016945,None,63.523642300016945,None,test,001,2022-06-22_11h22.46.055,MemoryStudy,2022.1.4,59.90570841528775,
Mem,1,sandcastle.jpg,P,P,JPG\,sandcastle,C:\\Users\\Psychology\\Documents\\ABExperiment\\MemoryStudy\\resources\\JPG\\sandcastle.jpg,C:\\Users\\Psychology\\Documents\\ABExperiment\\MemoryStudy\\resources\\JPG\\,0,70,70,70,,,,,,,63.69061469999724,None,1,0.26513009998598136,63.69061469999724,None,63.69061469999724,None,test,001,2022-06-22_11h22.46.055,MemoryStudy,2022.1.4,59.90570841528775,
Mem,1,sheep.jpg,P,P,JPG\,sheep,C:\\Users\\Psychology\\Documents\\ABExperiment\\MemoryStudy\\resources\\JPG\\sheep.jpg,C:\\Users\\Psychology\\Documents\\ABExperiment\\MemoryStudy\\resources\\JPG\\,0,71,71,71,,,,,,,63.99071179999737,None,1,0.70813499999349,63.99071179999737,None,63.99071179999737,None,test,001,2022-06-22_11h22.46.055,MemoryStudy,2022.1.4,59.90570841528775,
Mem,1,spiderweb.jpg,P,P,JPG\,spiderweb,C:\\Users\\Psychology\\Documents\\ABExperiment\\MemoryStudy\\resources\\JPG\\spiderweb.jpg,C:\\Users\\Psychology\\Documents\\ABExperiment\\MemoryStudy\\resources\\JPG\\,0,72,72,72,,,,,,,64.72487320000073,None,1,0.21481050000875257,64.72487320000073,None,64.72487320000073,None,test,001,2022-06-22_11h22.46.055,MemoryStudy,2022.1.4,59.90570841528775,
Mem,1,trampoline.jpg,P,P,JPG\,trampoline,C:\\Users\\Psychology\\Documents\\ABExperiment\\MemoryStudy\\resources\\JPG\\trampoline.jpg,C:\\Users\\Psychology\\Documents\\ABExperiment\\MemoryStudy\\resources\\JPG\\,0,73,73,73,,,,,,,64.97476050001569,None,1,0.45998909999616444,64.97476050001569,None,64.97476050001569,None,test,001,2022-06-22_11h22.46.055,MemoryStudy,2022.1.4,59.90570841528775,
Mem,1,trophy01.jpg,P,P,JPG\,trophy01,C:\\Users\\Psychology\\Documents\\ABExperiment\\MemoryStudy\\resources\\JPG\\trophy01.jpg,C:\\Users\\Psychology\\Documents\\ABExperiment\\MemoryStudy\\resources\\JPG\\,0,74,74,74,,,,,,,65.4588919999951,None,1,0.24019580002641305,65.4588919999951,None,65.4588919999951,None,test,001,2022-06-22_11h22.46.055,MemoryStudy,2022.1.4,59.90570841528775,
Mem,1,windmill.jpg,P,P,JPG\,windmill,C:\\Users\\Psychology\\Documents\\ABExperiment\\MemoryStudy\\resources\\JPG\\windmill.jpg,C:\\Users\\Psychology\\Documents\\ABExperiment\\MemoryStudy\\resources\\JPG\\,0,75,75,75,,,,,,,65.72605009999825,None,1,0.24397730000782758,65.72605009999825,None,65.72605009999825,None,test,001,2022-06-22_11h22.46.055,MemoryStudy,2022.1.4,59.90570841528775,
Mem,1,arrow02.jpg,P,P,JPG\,arrow02,C:\\Users\\Psychology\\Documents\\ABExperiment\\MemoryStudy\\resources\\JPG\\arrow02.jpg,C:\\Users\\Psychology\\Documents\\ABExperiment\\MemoryStudy\\resources\\JPG\\,0,76,76,76,,,,,,,65.99298010001075,None,1,0.24119150001206435,65.99298010001075,None,65.99298010001075,None,test,001,2022-06-22_11h22.46.055,MemoryStudy,2022.1.4,59.90570841528775,
Mem,1,birdhouse.jpg,P,P,JPG\,birdhouse,C:\\Users\\Psychology\\Documents\\ABExperiment\\MemoryStudy\\resources\\JPG\\birdhouse.jpg,C:\\Users\\Psychology\\Documents\\ABExperiment\\MemoryStudy\\resources\\JPG\\,0,77,77,77,,,,,,,66.25996220001252,None,1,0.24635390000184998,66.25996220001252,None,66.25996220001252,None,test,001,2022-06-22_11h22.46.055,MemoryStudy,2022.1.4,59.90570841528775,
Mem,1,bridge.jpg,P,P,JPG\,bridge,C:\\Users\\Psychology\\Documents\\ABExperiment\\MemoryStudy\\resources\\JPG\\bridge.jpg,C:\\Users\\Psychology\\Documents\\ABExperiment\\MemoryStudy\\resources\\JPG\\,0,78,78,78,,,,,,,66.52695329999551,None,1,0.2751601999916602,66.52695329999551,None,66.52695329999551,None,test,001,2022-06-22_11h22.46.055,MemoryStudy,2022.1.4,59.90570841528775,
Mem,1,cashregister01.jpg,P,P,JPG\,cashregister01,C:\\Users\\Psychology\\Documents\\ABExperiment\\MemoryStudy\\resources\\JPG\\cashregister01.jpg,C:\\Users\\Psychology\\Documents\\ABExperiment\\MemoryStudy\\resources\\JPG\\,0,79,79,79,,,,,,,66.82879170001252,None,1,0.3102701000170782,66.82879170001252,None,66.82879170001252,None,test,001,2022-06-22_11h22.46.055,MemoryStudy,2022.1.4,59.90570841528775,
Mem,1,dartboard.jpg,P,P,JPG\,dartboard,C:\\Users\\Psychology\\Documents\\ABExperiment\\MemoryStudy\\resources\\JPG\\dartboard.jpg,C:\\Users\\Psychology\\Documents\\ABExperiment\\MemoryStudy\\resources\\JPG\\,0,80,80,80,,,,,,,67.16070530001889,None,1,0.29033660001005046,67.16070530001889,None,67.16070530001889,None,test,001,2022-06-22_11h22.46.055,MemoryStudy,2022.1.4,59.90570841528775,
Mem,1,dreamcatcher.jpg,P,P,JPG\,dreamcatcher,C:\\Users\\Psychology\\Documents\\ABExperiment\\MemoryStudy\\resources\\JPG\\dreamcatcher.jpg,C:\\Users\\Psychology\\Documents\\ABExperiment\\MemoryStudy\\resources\\JPG\\,0,81,81,81,,,,,,,67.47764769999776,None,1,0.30039420002140105,67.47764769999776,None,67.47764769999776,None,test,001,2022-06-22_11h22.46.055,MemoryStudy,2022.1.4,59.90570841528775,
Mem,1,escalator.jpg,P,P,JPG\,escalator,C:\\Users\\Psychology\\Documents\\ABExperiment\\MemoryStudy\\resources\\JPG\\escalator.jpg,C:\\Users\\Psychology\\Documents\\ABExperiment\\MemoryStudy\\resources\\JPG\\,0,82,82,82,,,,,,,67.81154520000564,None,1,0.27078350001829676,67.81154520000564,None,67.81154520000564,None,test,001,2022-06-22_11h22.46.055,MemoryStudy,2022.1.4,59.90570841528775,
Mem,1,firehydrant.jpg,P,P,JPG\,firehydrant,C:\\Users\\Psychology\\Documents\\ABExperiment\\MemoryStudy\\resources\\JPG\\firehydrant.jpg,C:\\Users\\Psychology\\Documents\\ABExperiment\\MemoryStudy\\resources\\JPG\\,0,83,83,83,,,,,,,68.11196730000665,None,1,0.2981725000136066,68.11196730000665,None,68.11196730000665,None,test,001,2022-06-22_11h22.46.055,MemoryStudy,2022.1.4,59.90570841528775,
Mem,1,greatwhiteshark.jpg,P,P,JPG\,greatwhiteshark,C:\\Users\\Psychology\\Documents\\ABExperiment\\MemoryStudy\\resources\\JPG\\greatwhiteshark.jpg,C:\\Users\\Psychology\\Documents\\ABExperiment\\MemoryStudy\\resources\\JPG\\,0,84,84,84,,,,,,,68.44500239999616,None,1,0.2852871000068262,68.44500239999616,None,68.44500239999616,None,test,001,2022-06-22_11h22.46.055,MemoryStudy,2022.1.4,59.90570841528775,
Mem,1,helicopter.jpg,P,P,JPG\,helicopter,C:\\Users\\Psychology\\Documents\\ABExperiment\\MemoryStudy\\resources\\JPG\\helicopter.jpg,C:\\Users\\Psychology\\Documents\\ABExperiment\\MemoryStudy\\resources\\JPG\\,0,85,85,85,,,,,,,68.76225080000586,None,1,0.2654943999950774,68.76225080000586,None,68.76225080000586,None,test,001,2022-06-22_11h22.46.055,MemoryStudy,2022.1.4,59.90570841528775,
Mem,1,smokingsign.jpg,P,P,JPG\,smokingsign,C:\\Users\\Psychology\\Documents\\ABExperiment\\MemoryStudy\\resources\\JPG\\smokingsign.jpg,C:\\Users\\Psychology\\Documents\\ABExperiment\\MemoryStudy\\resources\\JPG\\,0,86,86,86,,,,,,,69.06224270001985,None,1,0.2606953000067733,69.06224270001985,None,69.06224270001985,None,test,001,2022-06-22_11h22.46.055,MemoryStudy,2022.1.4,59.90570841528775,
Mem,1,barnowl.jpg,P,P,JPG\,barnowl,C:\\Users\\Psychology\\Documents\\ABExperiment\\MemoryStudy\\resources\\JPG\\barnowl.jpg,C:\\Users\\Psychology\\Documents\\ABExperiment\\MemoryStudy\\resources\\JPG\\,0,87,87,87,,,,,,,69.45085600001039,None,1,0.15169719999539666,69.45085600001039,None,69.45085600001039,None,test,001,2022-06-22_11h22.46.055,MemoryStudy,2022.1.4,59.90570841528775,
Mem,1,pig.jpg,P,P,JPG\,pig,C:\\Users\\Psychology\\Documents\\ABExperiment\\MemoryStudy\\resources\\JPG\\pig.jpg,C:\\Users\\Psychology\\Documents\\ABExperiment\\MemoryStudy\\resources\\JPG\\,0,88,88,88,,,,,,,69.63098119999631,None,1,0.2516728000191506,69.63098119999631,None,69.63098119999631,None,test,001,2022-06-22_11h22.46.055,MemoryStudy,2022.1.4,59.90570841528775,
Mem,1,polarbear.jpg,P,P,JPG\,polarbear,C:\\Users\\Psychology\\Documents\\ABExperiment\\MemoryStudy\\resources\\JPG\\polarbear.jpg,C:\\Users\\Psychology\\Documents\\ABExperiment\\MemoryStudy\\resources\\JPG\\,0,89,89,89,,,,,,,69.91255140001886,None,1,0.22709240001859143,69.91255140001886,None,69.91255140001886,None,test,001,2022-06-22_11h22.46.055,MemoryStudy,2022.1.4,59.90570841528775,
Mem,1,sandbarshark.jpg,P,P,JPG\,sandbarshark,C:\\Users\\Psychology\\Documents\\ABExperiment\\MemoryStudy\\resources\\JPG\\sandbarshark.jpg,C:\\Users\\Psychology\\Documents\\ABExperiment\\MemoryStudy\\resources\\JPG\\,0,90,90,90,,,,,,,70.24814490001881,None,1,0.12286820000736043,70.24814490001881,None,70.24814490001881,None,test,001,2022-06-22_11h22.46.055,MemoryStudy,2022.1.4,59.90570841528775,
Mem,1,telescope.jpg,P,P,JPG\,telescope,C:\\Users\\Psychology\\Documents\\ABExperiment\\MemoryStudy\\resources\\JPG\\telescope.jpg,C:\\Users\\Psychology\\Documents\\ABExperiment\\MemoryStudy\\resources\\JPG\\,0,91,91,91,,,,,,,70.39767550001852,None,1,0.2446561999968253,70.39767550001852,None,70.39767550001852,None,test,001,2022-06-22_11h22.46.055,MemoryStudy,2022.1.4,59.90570841528775,
Mem,1,tent.jpg,P,P,JPG\,tent,C:\\Users\\Psychology\\Documents\\ABExperiment\\MemoryStudy\\resources\\JPG\\tent.jpg,C:\\Users\\Psychology\\Documents\\ABExperiment\\MemoryStudy\\resources\\JPG\\,0,92,92,92,,,,,,,70.66368510000757,None,1,0.2346335000183899,70.66368510000757,None,70.66368510000757,None,test,001,2022-06-22_11h22.46.055,MemoryStudy,2022.1.4,59.90570841528775,
Mem,1,toilet.jpg,P,P,JPG\,toilet,C:\\Users\\Psychology\\Documents\\ABExperiment\\MemoryStudy\\resources\\JPG\\toilet.jpg,C:\\Users\\Psychology\\Documents\\ABExperiment\\MemoryStudy\\resources\\JPG\\,0,93,93,93,,,,,,,70.9306329000101,None,1,0.22418849999667145,70.9306329000101,None,70.9306329000101,None,test,001,2022-06-22_11h22.46.055,MemoryStudy,2022.1.4,59.90570841528775,
Mem,1,tricycle.jpg,P,P,JPG\,tricycle,C:\\Users\\Psychology\\Documents\\ABExperiment\\MemoryStudy\\resources\\JPG\\tricycle.jpg,C:\\Users\\Psychology\\Documents\\ABExperiment\\MemoryStudy\\resources\\JPG\\,0,94,94,94,,,,,,,71.18090710000251,None,1,0.2299119000090286,71.18090710000251,None,71.18090710000251,None,test,001,2022-06-22_11h22.46.055,MemoryStudy,2022.1.4,59.90570841528775,
Mem,1,rubikcube.jpg,P,P,JPG\,rubikcube,C:\\Users\\Psychology\\Documents\\ABExperiment\\MemoryStudy\\resources\\JPG\\rubikcube.jpg,C:\\Users\\Psychology\\Documents\\ABExperiment\\MemoryStudy\\resources\\JPG\\,0,95,95,95,,,,,,,71.43114369999967,None,1,0.2445374999952037,71.43114369999967,None,71.43114369999967,None,test,001,2022-06-22_11h22.46.055,MemoryStudy,2022.1.4,59.90570841528775,
Mem,1,anchor.jpg,P,P,JPG\,anchor,C:\\Users\\Psychology\\Documents\\ABExperiment\\MemoryStudy\\resources\\JPG\\anchor.jpg,C:\\Users\\Psychology\\Documents\\ABExperiment\\MemoryStudy\\resources\\JPG\\,0,96,96,96,,,,,,,71.69733759999508,None,1,0.24144320000777952,71.69733759999508,None,71.69733759999508,None,test,001,2022-06-22_11h22.46.055,MemoryStudy,2022.1.4,59.90570841528775,
Mem,1,beerbottle.jpg,P,P,JPG\,beerbottle,C:\\Users\\Psychology\\Documents\\ABExperiment\\MemoryStudy\\resources\\JPG\\beerbottle.jpg,C:\\Users\\Psychology\\Documents\\ABExperiment\\MemoryStudy\\resources\\JPG\\,0,97,97,97,,,,,,,71.96433270000853,None,1,0.24658579999231733,71.96433270000853,None,71.96433270000853,None,test,001,2022-06-22_11h22.46.055,MemoryStudy,2022.1.4,59.90570841528775,
Mem,1,bowtie.jpg,P,P,JPG\,bowtie,C:\\Users\\Psychology\\Documents\\ABExperiment\\MemoryStudy\\resources\\JPG\\bowtie.jpg,C:\\Users\\Psychology\\Documents\\ABExperiment\\MemoryStudy\\resources\\JPG\\,0,98,98,98,,,,,,,72.23112320000655,None,1,0.2447577000129968,72.23112320000655,None,72.23112320000655,None,test,001,2022-06-22_11h22.46.055,MemoryStudy,2022.1.4,59.90570841528775,
Mem,1,cannon.jpg,P,P,JPG\,cannon,C:\\Users\\Psychology\\Documents\\ABExperiment\\MemoryStudy\\resources\\JPG\\cannon.jpg,C:\\Users\\Psychology\\Documents\\ABExperiment\\MemoryStudy\\resources\\JPG\\,0,99,99,99,,,,,,,72.49826580000808,None,1,0.2638714000058826,72.49826580000808,None,72.49826580000808,None,test,001,2022-06-22_11h22.46.055,MemoryStudy,2022.1.4,59.90570841528775,
Mem,1,cat.jpg,P,P,JPG\,cat,C:\\Users\\Psychology\\Documents\\ABExperiment\\MemoryStudy\\resources\\JPG\\cat.jpg,C:\\Users\\Psychology\\Documents\\ABExperiment\\MemoryStudy\\resources\\JPG\\,0,100,100,100,,,,,,,72.78914890001761,None,1,0.2608036000165157,72.78914890001761,None,72.78914890001761,None,test,001,2022-06-22_11h22.46.055,MemoryStudy,2022.1.4,59.90570841528775,
Mem,1,chair.jpg,P,P,JPG\,chair,C:\\Users\\Psychology\\Documents\\ABExperiment\\MemoryStudy\\resources\\JPG\\chair.jpg,C:\\Users\\Psychology\\Documents\\ABExperiment\\MemoryStudy\\resources\\JPG\\,0,101,101,101,,,,,,,73.08272950001992,None,1,0.26330540000344627,73.08272950001992,None,73.08272950001992,None,test,001,2022-06-22_11h22.46.055,MemoryStudy,2022.1.4,59.90570841528775,
Mem,1,cross01.jpg,P,P,JPG\,cross01,C:\\Users\\Psychology\\Documents\\ABExperiment\\MemoryStudy\\resources\\JPG\\cross01.jpg,C:\\Users\\Psychology\\Documents\\ABExperiment\\MemoryStudy\\resources\\JPG\\,0,102,102,102,,,,,,,73.36641570000211,None,1,0.5655740999791306,73.36641570000211,None,73.36641570000211,None,test,001,2022-06-22_11h22.46.055,MemoryStudy,2022.1.4,59.90570841528775,
Mem,1,englishcucumber.jpg,P,P,JPG\,englishcucumber,C:\\Users\\Psychology\\Documents\\ABExperiment\\MemoryStudy\\resources\\JPG\\englishcucumber.jpg,C:\\Users\\Psychology\\Documents\\ABExperiment\\MemoryStudy\\resources\\JPG\\,0,103,103,103,,,,,,,73.97711989999516,None,1,0.2888608999783173,73.97711989999516,None,73.97711989999516,None,test,001,2022-06-22_11h22.46.055,MemoryStudy,2022.1.4,59.90570841528775,
Mem,1,frisbee.jpg,P,P,JPG\,frisbee,C:\\Users\\Psychology\\Documents\\ABExperiment\\MemoryStudy\\resources\\JPG\\frisbee.jpg,C:\\Users\\Psychology\\Documents\\ABExperiment\\MemoryStudy\\resources\\JPG\\,0,104,104,104,,,,,,,74.31093890001648,None,1,0.26803230002406053,74.31093890001648,None,74.31093890001648,None,test,001,2022-06-22_11h22.46.055,MemoryStudy,2022.1.4,59.90570841528775,
Mem,1,granolabar01.jpg,P,P,JPG\,granolabar01,C:\\Users\\Psychology\\Documents\\ABExperiment\\MemoryStudy\\resources\\JPG\\granolabar01.jpg,C:\\Users\\Psychology\\Documents\\ABExperiment\\MemoryStudy\\resources\\JPG\\,0,105,105,105,,,,,,,74.60098060002201,None,1,0.32901449999189936,74.60098060002201,None,74.60098060002201,None,test,001,2022-06-22_11h22.46.055,MemoryStudy,2022.1.4,59.90570841528775,
Mem,1,jeans01.jpg,P,P,JPG\,jeans01,C:\\Users\\Psychology\\Documents\\ABExperiment\\MemoryStudy\\resources\\JPG\\jeans01.jpg,C:\\Users\\Psychology\\Documents\\ABExperiment\\MemoryStudy\\resources\\JPG\\,0,106,106,106,,,,,,,74.95575459999964,None,1,0.2628991999954451,74.95575459999964,None,74.95575459999964,None,test,001,2022-06-22_11h22.46.055,MemoryStudy,2022.1.4,59.90570841528775,
Mem,1,jeep.jpg,P,P,JPG\,jeep,C:\\Users\\Psychology\\Documents\\ABExperiment\\MemoryStudy\\resources\\JPG\\jeep.jpg,C:\\Users\\Psychology\\Documents\\ABExperiment\\MemoryStudy\\resources\\JPG\\,0,107,107,107,,,,,,,75.25028880001628,None,1,0.2809475999965798,75.25028880001628,None,75.25028880001628,None,test,001,2022-06-22_11h22.46.055,MemoryStudy,2022.1.4,59.90570841528775,
Mem,1,knee.jpg,P,P,JPG\,knee,C:\\Users\\Psychology\\Documents\\ABExperiment\\MemoryStudy\\resources\\JPG\\knee.jpg,C:\\Users\\Psychology\\Documents\\ABExperiment\\MemoryStudy\\resources\\JPG\\,0,108,108,108,,,,,,,75.55044350001845,None,1,0.2602144999837037,75.55044350001845,None,75.55044350001845,None,test,001,2022-06-22_11h22.46.055,MemoryStudy,2022.1.4,59.90570841528775,
Mem,1,lighthouse.jpg,P,P,JPG\,lighthouse,C:\\Users\\Psychology\\Documents\\ABExperiment\\MemoryStudy\\resources\\JPG\\lighthouse.jpg,C:\\Users\\Psychology\\Documents\\ABExperiment\\MemoryStudy\\resources\\JPG\\,0,109,109,109,,,,,,,75.83382030000212,None,1,0.29634709999663755,75.83382030000212,None,75.83382030000212,None,test,001,2022-06-22_11h22.46.055,MemoryStudy,2022.1.4,59.90570841528775,
Mem,1,lion.jpg,P,P,JPG\,lion,C:\\Users\\Psychology\\Documents\\ABExperiment\\MemoryStudy\\resources\\JPG\\lion.jpg,C:\\Users\\Psychology\\Documents\\ABExperiment\\MemoryStudy\\resources\\JPG\\,0,110,110,110,,,,,,,76.15464970000903,None,1,0.2473302000144031,76.15464970000903,None,76.15464970000903,None,test,001,2022-06-22_11h22.46.055,MemoryStudy,2022.1.4,59.90570841528775,
Mem,1,microphone01.jpg,P,P,JPG\,microphone01,C:\\Users\\Psychology\\Documents\\ABExperiment\\MemoryStudy\\resources\\JPG\\microphone01.jpg,C:\\Users\\Psychology\\Documents\\ABExperiment\\MemoryStudy\\resources\\JPG\\,0,111,111,111,,,,,,,76.4371678000025,None,1,0.3016082000103779,76.4371678000025,None,76.4371678000025,None,test,001,2022-06-22_11h22.46.055,MemoryStudy,2022.1.4,59.90570841528775,
Mem,1,1nose.jpg,P,P,JPG\,1nose,C:\\Users\\Psychology\\Documents\\ABExperiment\\MemoryStudy\\resources\\JPG\\1nose.jpg,C:\\Users\\Psychology\\Documents\\ABExperiment\\MemoryStudy\\resources\\JPG\\,0,112,112,112,,,,,,,76.76697960001184,None,1,0.23571199999423698,76.76697960001184,None,76.76697960001184,None,test,001,2022-06-22_11h22.46.055,MemoryStudy,2022.1.4,59.90570841528775,
Mem,1,ostrich.jpg,P,P,JPG\,ostrich,C:\\Users\\Psychology\\Documents\\ABExperiment\\MemoryStudy\\resources\\JPG\\ostrich.jpg,C:\\Users\\Psychology\\Documents\\ABExperiment\\MemoryStudy\\resources\\JPG\\,0,113,113,113,,,,,,,77.03427380000358,None,1,0.18497840000782162,77.03427380000358,None,77.03427380000358,None,test,001,2022-06-22_11h22.46.055,MemoryStudy,2022.1.4,59.90570841528775,
Mem,1,porcupine.jpg,P,P,JPG\,porcupine,C:\\Users\\Psychology\\Documents\\ABExperiment\\MemoryStudy\\resources\\JPG\\porcupine.jpg,C:\\Users\\Psychology\\Documents\\ABExperiment\\MemoryStudy\\resources\\JPG\\,0,114,114,114,,,,,,,77.25359229999594,None,1,0.2767284000001382,77.25359229999594,None,77.25359229999594,None,test,001,2022-06-22_11h22.46.055,MemoryStudy,2022.1.4,59.90570841528775,
Mem,1,redfox.jpg,P,P,JPG\,redfox,C:\\Users\\Psychology\\Documents\\ABExperiment\\MemoryStudy\\resources\\JPG\\redfox.jpg,C:\\Users\\Psychology\\Documents\\ABExperiment\\MemoryStudy\\resources\\JPG\\,0,115,115,115,,,,,,,77.55125879999832,None,1,0.20300790001056157,77.55125879999832,None,77.55125879999832,None,test,001,2022-06-22_11h22.46.055,MemoryStudy,2022.1.4,59.90570841528775,
Mem,1,seal.jpg,P,P,JPG\,seal,C:\\Users\\Psychology\\Documents\\ABExperiment\\MemoryStudy\\resources\\JPG\\seal.jpg,C:\\Users\\Psychology\\Documents\\ABExperiment\\MemoryStudy\\resources\\JPG\\,0,116,116,116,,,,,,,77.78420280001592,None,1,0.22583490001852624,77.78420280001592,None,77.78420280001592,None,test,001,2022-06-22_11h22.46.055,MemoryStudy,2022.1.4,59.90570841528775,
Mem,1,stool01.jpg,P,P,JPG\,stool01,C:\\Users\\Psychology\\Documents\\ABExperiment\\MemoryStudy\\resources\\JPG\\stool01.jpg,C:\\Users\\Psychology\\Documents\\ABExperiment\\MemoryStudy\\resources\\JPG\\,0,117,117,117,,,,,,,78.03591160001815,None,1,0.18995479997829534,78.03591160001815,None,78.03591160001815,None,test,001,2022-06-22_11h22.46.055,MemoryStudy,2022.1.4,59.90570841528775,
Mem,1,toolbox02.jpg,P,P,JPG\,toolbox02,C:\\Users\\Psychology\\Documents\\ABExperiment\\MemoryStudy\\resources\\JPG\\toolbox02.jpg,C:\\Users\\Psychology\\Documents\\ABExperiment\\MemoryStudy\\resources\\JPG\\,0,118,118,118,,,,,,,78.25176820001798,None,1,0.2559774999972433,78.25176820001798,None,78.25176820001798,None,test,001,2022-06-22_11h22.46.055,MemoryStudy,2022.1.4,59.90570841528775,
Mem,1,treadmill.jpg,P,P,JPG\,treadmill,C:\\Users\\Psychology\\Documents\\ABExperiment\\MemoryStudy\\resources\\JPG\\treadmill.jpg,C:\\Users\\Psychology\\Documents\\ABExperiment\\MemoryStudy\\resources\\JPG\\,0,119,119,119,,,,,,,78.53638299999875,None,1,0.161522700014757,78.53638299999875,None,78.53638299999875,None,test,001,2022-06-22_11h22.46.055,MemoryStudy,2022.1.4,59.90570841528775,
Mem,1,uprightpiano01.jpg,P,P,JPG\,uprightpiano01,C:\\Users\\Psychology\\Documents\\ABExperiment\\MemoryStudy\\resources\\JPG\\uprightpiano01.jpg,C:\\Users\\Psychology\\Documents\\ABExperiment\\MemoryStudy\\resources\\JPG\\,0,120,120,120,,,,,,,78.71908410001197,None,1,0.2433749999909196,78.71908410001197,None,78.71908410001197,None,test,001,2022-06-22_11h22.46.055,MemoryStudy,2022.1.4,59.90570841528775,
Mem,1,wallclock.jpg,P,P,JPG\,wallclock,C:\\Users\\Psychology\\Documents\\ABExperiment\\MemoryStudy\\resources\\JPG\\wallclock.jpg,C:\\Users\\Psychology\\Documents\\ABExperiment\\MemoryStudy\\resources\\JPG\\,0,121,121,121,,,,,,,78.98736840000493,None,1,0.19145909999497235,78.98736840000493,None,78.98736840000493,None,test,001,2022-06-22_11h22.46.055,MemoryStudy,2022.1.4,59.90570841528775,
Mem,1,horseshoe.jpg,P,P,JPG\,horseshoe,C:\\Users\\Psychology\\Documents\\ABExperiment\\MemoryStudy\\resources\\JPG\\horseshoe.jpg,C:\\Users\\Psychology\\Documents\\ABExperiment\\MemoryStudy\\resources\\JPG\\,0,122,122,122,,,,,,,79.20325520000188,None,1,0.23132890000124462,79.20325520000188,None,79.20325520000188,None,test,001,2022-06-22_11h22.46.055,MemoryStudy,2022.1.4,59.90570841528775,
Mem,1,ant.jpg,P,P,JPG\,ant,C:\\Users\\Psychology\\Documents\\ABExperiment\\MemoryStudy\\resources\\JPG\\ant.jpg,C:\\Users\\Psychology\\Documents\\ABExperiment\\MemoryStudy\\resources\\JPG\\,0,123,123,123,,,,,,,79.45303760000388,None,1,0.18938650001655333,79.45303760000388,None,79.45303760000388,None,test,001,2022-06-22_11h22.46.055,MemoryStudy,2022.1.4,59.90570841528775,
Mem,1,barrel01.jpg,P,P,JPG\,barrel01,C:\\Users\\Psychology\\Documents\\ABExperiment\\MemoryStudy\\resources\\JPG\\barrel01.jpg,C:\\Users\\Psychology\\Documents\\ABExperiment\\MemoryStudy\\resources\\JPG\\,0,124,124,124,,,,,,,79.67094040001393,None,1,0.19505800001206808,79.67094040001393,None,79.67094040001393,None,test,001,2022-06-22_11h22.46.055,MemoryStudy,2022.1.4,59.90570841528775,
Mem,1,bull.jpg,P,P,JPG\,bull,C:\\Users\\Psychology\\Documents\\ABExperiment\\MemoryStudy\\resources\\JPG\\bull.jpg,C:\\Users\\Psychology\\Documents\\ABExperiment\\MemoryStudy\\resources\\JPG\\,0,125,125,125,,,,,,,79.88777930001379,None,1,0.20240119998925366,79.88777930001379,None,79.88777930001379,None,test,001,2022-06-22_11h22.46.055,MemoryStudy,2022.1.4,59.90570841528775,
Mem,1,calendar.jpg,P,P,JPG\,calendar,C:\\Users\\Psychology\\Documents\\ABExperiment\\MemoryStudy\\resources\\JPG\\calendar.jpg,C:\\Users\\Psychology\\Documents\\ABExperiment\\MemoryStudy\\resources\\JPG\\,0,126,126,126,,,,,,,80.12096970001585,None,1,0.16900779999559745,80.12096970001585,None,80.12096970001585,None,test,001,2022-06-22_11h22.46.055,MemoryStudy,2022.1.4,59.90570841528775,
Mem,1,chimney.jpg,P,P,JPG\,chimney,C:\\Users\\Psychology\\Documents\\ABExperiment\\MemoryStudy\\resources\\JPG\\chimney.jpg,C:\\Users\\Psychology\\Documents\\ABExperiment\\MemoryStudy\\resources\\JPG\\,0,127,127,127,,,,,,,80.3212416000024,None,1,0.17668760000378825,80.3212416000024,None,80.3212416000024,None,test,001,2022-06-22_11h22.46.055,MemoryStudy,2022.1.4,59.90570841528775,
Mem,1,christmastree.jpg,P,P,JPG\,christmastree,C:\\Users\\Psychology\\Documents\\ABExperiment\\MemoryStudy\\resources\\JPG\\christmastree.jpg,C:\\Users\\Psychology\\Documents\\ABExperiment\\MemoryStudy\\resources\\JPG\\,0,128,128,128,,,,,,,80.52156140000443,None,1,0.1928788000077475,80.52156140000443,None,80.52156140000443,None,test,001,2022-06-22_11h22.46.055,MemoryStudy,2022.1.4,59.90570841528775,
Mem,1,crown.jpg,P,P,JPG\,crown,C:\\Users\\Psychology\\Documents\\ABExperiment\\MemoryStudy\\resources\\JPG\\crown.jpg,C:\\Users\\Psychology\\Documents\\ABExperiment\\MemoryStudy\\resources\\JPG\\,0,129,129,129,,,,,,,80.73813350001001,None,1,0.16038479999406263,80.73813350001001,None,80.73813350001001,None,test,001,2022-06-22_11h22.46.055,MemoryStudy,2022.1.4,59.90570841528775,
Mem,1,curtain.jpg,P,P,JPG\,curtain,C:\\Users\\Psychology\\Documents\\ABExperiment\\MemoryStudy\\resources\\JPG\\curtain.jpg,C:\\Users\\Psychology\\Documents\\ABExperiment\\MemoryStudy\\resources\\JPG\\,0,130,130,130,,,,,,,80.92169410001952,None,1,0.1922964000259526,80.92169410001952,None,80.92169410001952,None,test,001,2022-06-22_11h22.46.055,MemoryStudy,2022.1.4,59.90570841528775,
Mem,1,daddylonglegs.jpg,P,P,JPG\,daddylonglegs,C:\\Users\\Psychology\\Documents\\ABExperiment\\MemoryStudy\\resources\\JPG\\daddylonglegs.jpg,C:\\Users\\Psychology\\Documents\\ABExperiment\\MemoryStudy\\resources\\JPG\\,0,131,131,131,,,,,,,81.13841000001412,None,1,0.15994330000830814,81.13841000001412,None,81.13841000001412,None,test,001,2022-06-22_11h22.46.055,MemoryStudy,2022.1.4,59.90570841528775,
Mem,5,elbow.jpg,P,P,JPG\,elbow,C:\\Users\\Psychology\\Documents\\ABExperiment\\MemoryStudy\\resources\\JPG\\elbow.jpg,C:\\Users\\Psychology\\Documents\\ABExperiment\\MemoryStudy\\resources\\JPG\\,0,132,132,132,,,,,,,81.32185370000661,None,1,0.176861399988411,81.32185370000661,None,81.32185370000661,None,test,001,2022-06-22_11h22.46.055,MemoryStudy,2022.1.4,59.90570841528775,
Mem,5,fireplace.jpg,P,P,JPG\,fireplace,C:\\Users\\Psychology\\Documents\\ABExperiment\\MemoryStudy\\resources\\JPG\\fireplace.jpg,C:\\Users\\Psychology\\Documents\\ABExperiment\\MemoryStudy\\resources\\JPG\\,0,133,133,133,,,,,,,81.5239741000114,None,1,0.1658486999804154,81.5239741000114,None,81.5239741000114,None,test,001,2022-06-22_11h22.46.055,MemoryStudy,2022.1.4,59.90570841528775,
Mem,5,greywolf.jpg,P,P,JPG\,greywolf,C:\\Users\\Psychology\\Documents\\ABExperiment\\MemoryStudy\\resources\\JPG\\greywolf.jpg,C:\\Users\\Psychology\\Documents\\ABExperiment\\MemoryStudy\\resources\\JPG\\,0,134,134,134,,,,,,,81.72214430000167,None,1,0.1685120000038296,81.72214430000167,None,81.72214430000167,None,test,001,2022-06-22_11h22.46.055,MemoryStudy,2022.1.4,59.90570841528775,
Mem,5,jackrabbit.jpg,P,P,JPG\,jackrabbit,C:\\Users\\Psychology\\Documents\\ABExperiment\\MemoryStudy\\resources\\JPG\\jackrabbit.jpg,C:\\Users\\Psychology\\Documents\\ABExperiment\\MemoryStudy\\resources\\JPG\\,0,135,135,135,,,,,,,81.922492600017,None,1,0.18339670001296327,81.922492600017,None,81.922492600017,None,test,001,2022-06-22_11h22.46.055,MemoryStudy,2022.1.4,59.90570841528775,
Mem,5,jellyfish.jpg,P,P,JPG\,jellyfish,C:\\Users\\Psychology\\Documents\\ABExperiment\\MemoryStudy\\resources\\JPG\\jellyfish.jpg,C:\\Users\\Psychology\\Documents\\ABExperiment\\MemoryStudy\\resources\\JPG\\,0,136,136,136,,,,,,,82.12294640002074,None,1,0.19157409999752417,82.12294640002074,None,82.12294640002074,None,test,001,2022-06-22_11h22.46.055,MemoryStudy,2022.1.4,59.90570841528775,
Mem,5,leafrake.jpg,P,P,JPG\,leafrake,C:\\Users\\Psychology\\Documents\\ABExperiment\\MemoryStudy\\resources\\JPG\\leafrake.jpg,C:\\Users\\Psychology\\Documents\\ABExperiment\\MemoryStudy\\resources\\JPG\\,0,137,137,137,,,,,,,82.33985690001282,None,1,0.17446010001003742,82.33985690001282,None,82.33985690001282,None,test,001,2022-06-22_11h22.46.055,MemoryStudy,2022.1.4,59.90570841528775,
Mem,5,motorcycle.jpg,P,P,JPG\,motorcycle,C:\\Users\\Psychology\\Documents\\ABExperiment\\MemoryStudy\\resources\\JPG\\motorcycle.jpg,C:\\Users\\Psychology\\Documents\\ABExperiment\\MemoryStudy\\resources\\JPG\\,0,138,138,138,,,,,,,82.53954680002062,None,1,0.1826502000039909,82.53954680002062,None,82.53954680002062,None,test,001,2022-06-22_11h22.46.055,MemoryStudy,2022.1.4,59.90570841528775,
Mem,5,mouse.jpg,P,P,JPG\,mouse,C:\\Users\\Psychology\\Documents\\ABExperiment\\MemoryStudy\\resources\\JPG\\mouse.jpg,C:\\Users\\Psychology\\Documents\\ABExperiment\\MemoryStudy\\resources\\JPG\\,0,139,139,139,,,,,,,82.74099720001686,None,1,0.18923930000164546,82.74099720001686,None,82.74099720001686,None,test,001,2022-06-22_11h22.46.055,MemoryStudy,2022.1.4,59.90570841528775,
Mem,5,lip.jpg,P,P,JPG\,lip,C:\\Users\\Psychology\\Documents\\ABExperiment\\MemoryStudy\\resources\\JPG\\lip.jpg,C:\\Users\\Psychology\\Documents\\ABExperiment\\MemoryStudy\\resources\\JPG\\,0,140,140,140,,,,,,,82.95921349999844,None,1,0.20284130002255552,82.95921349999844,None,82.95921349999844,None,test,001,2022-06-22_11h22.46.055,MemoryStudy,2022.1.4,59.90570841528775,
Mem,5,mummy.jpg,P,P,JPG\,mummy,C:\\Users\\Psychology\\Documents\\ABExperiment\\MemoryStudy\\resources\\JPG\\mummy.jpg,C:\\Users\\Psychology\\Documents\\ABExperiment\\MemoryStudy\\resources\\JPG\\,0,141,141,141,,,,,,,83.19281810001121,None,1,0.16916699998546392,83.19281810001121,None,83.19281810001121,None,test,001,2022-06-22_11h22.46.055,MemoryStudy,2022.1.4,59.90570841528775,
Mem,5,saltshaker03a.jpg,P,P,JPG\,saltshaker03a,C:\\Users\\Psychology\\Documents\\ABExperiment\\MemoryStudy\\resources\\JPG\\saltshaker03a.jpg,C:\\Users\\Psychology\\Documents\\ABExperiment\\MemoryStudy\\resources\\JPG\\,0,142,142,142,,,,,,,83.39309210001375,None,1,0.1929396000050474,83.39309210001375,None,83.39309210001375,None,test,001,2022-06-22_11h22.46.055,MemoryStudy,2022.1.4,59.90570841528775,
Mem,5,scorpion.jpg,P,P,JPG\,scorpion,C:\\Users\\Psychology\\Documents\\ABExperiment\\MemoryStudy\\resources\\JPG\\scorpion.jpg,C:\\Users\\Psychology\\Documents\\ABExperiment\\MemoryStudy\\resources\\JPG\\,0,143,143,143,,,,,,,83.60991650001961,None,1,0.1841841999848839,83.60991650001961,None,83.60991650001961,None,test,001,2022-06-22_11h22.46.055,MemoryStudy,2022.1.4,59.90570841528775,
Mem,5,showerhead01.jpg,P,P,JPG\,showerhead01,C:\\Users\\Psychology\\Documents\\ABExperiment\\MemoryStudy\\resources\\JPG\\showerhead01.jpg,C:\\Users\\Psychology\\Documents\\ABExperiment\\MemoryStudy\\resources\\JPG\\,0,144,144,144,,,,,,,83.82674459999544,None,1,0.18337079999037087,83.82674459999544,None,83.82674459999544,None,test,001,2022-06-22_11h22.46.055,MemoryStudy,2022.1.4,59.90570841528775,
Mem,5,floorlamp.jpg,P,P,JPG\,floorlamp,C:\\Users\\Psychology\\Documents\\ABExperiment\\MemoryStudy\\resources\\JPG\\floorlamp.jpg,C:\\Users\\Psychology\\Documents\\ABExperiment\\MemoryStudy\\resources\\JPG\\,0,145,145,145,,,,,,,84.04361019999487,None,1,0.19054240002878942,84.04361019999487,None,84.04361019999487,None,test,001,2022-06-22_11h22.46.055,MemoryStudy,2022.1.4,59.90570841528775,
Mem,5,statue.jpg,P,P,JPG\,statue,C:\\Users\\Psychology\\Documents\\ABExperiment\\MemoryStudy\\resources\\JPG\\statue.jpg,C:\\Users\\Psychology\\Documents\\ABExperiment\\MemoryStudy\\resources\\JPG\\,0,146,146,146,,,,,,,84.26049539999804,None,1,0.16654360000393353,84.26049539999804,None,84.26049539999804,None,test,001,2022-06-22_11h22.46.055,MemoryStudy,2022.1.4,59.90570841528775,
Mem,5,witchhat.jpg,P,P,JPG\,witchhat,C:\\Users\\Psychology\\Documents\\ABExperiment\\MemoryStudy\\resources\\JPG\\witchhat.jpg,C:\\Users\\Psychology\\Documents\\ABExperiment\\MemoryStudy\\resources\\JPG\\,0,147,147,147,,,,,,,84.47223100002157,None,1,0.17777519999071956,84.47223100002157,None,84.47223100002157,None,test,001,2022-06-22_11h22.46.055,MemoryStudy,2022.1.4,59.90570841528775,
Mem,5,cigar.jpg,P,P,JPG\,cigar,C:\\Users\\Psychology\\Documents\\ABExperiment\\MemoryStudy\\resources\\JPG\\cigar.jpg,C:\\Users\\Psychology\\Documents\\ABExperiment\\MemoryStudy\\resources\\JPG\\,0,148,148,148,,,,,,,84.68507560002035,None,1,0.17380200000479817,84.68507560002035,None,84.68507560002035,None,test,001,2022-06-22_11h22.46.055,MemoryStudy,2022.1.4,59.90570841528775,
Mem,5,banjo.jpg,P,P,JPG\,banjo,C:\\Users\\Psychology\\Documents\\ABExperiment\\MemoryStudy\\resources\\JPG\\banjo.jpg,C:\\Users\\Psychology\\Documents\\ABExperiment\\MemoryStudy\\resources\\JPG\\,0,149,149,149,,,,,,,84.88630110002123,None,1,0.22039960001711734,84.88630110002123,None,84.88630110002123,None,test,001,2022-06-22_11h22.46.055,MemoryStudy,2022.1.4,59.90570841528775,
Mem,5,bathtub.jpg,P,P,JPG\,bathtub,C:\\Users\\Psychology\\Documents\\ABExperiment\\MemoryStudy\\resources\\JPG\\bathtub.jpg,C:\\Users\\Psychology\\Documents\\ABExperiment\\MemoryStudy\\resources\\JPG\\,0,150,150,150,,,,,,,85.12807609999436,None,1,0.18647910002619028,85.12807609999436,None,85.12807609999436,None,test,001,2022-06-22_11h22.46.055,MemoryStudy,2022.1.4,59.90570841528775,
Mem,5,bumpercar.jpg,P,P,JPG\,bumpercar,C:\\Users\\Psychology\\Documents\\ABExperiment\\MemoryStudy\\resources\\JPG\\bumpercar.jpg,C:\\Users\\Psychology\\Documents\\ABExperiment\\MemoryStudy\\resources\\JPG\\,0,151,151,151,,,,,,,85.34493690001545,None,1,0.20176699999137782,85.34493690001545,None,85.34493690001545,None,test,001,2022-06-22_11h22.46.055,MemoryStudy,2022.1.4,59.90570841528775,
Mem,5,cruiseship.jpg,P,P,JPG\,cruiseship,C:\\Users\\Psychology\\Documents\\ABExperiment\\MemoryStudy\\resources\\JPG\\cruiseship.jpg,C:\\Users\\Psychology\\Documents\\ABExperiment\\MemoryStudy\\resources\\JPG\\,0,152,152,152,,,,,,,85.57855840001139,None,1,0.1919515999907162,85.57855840001139,None,85.57855840001139,None,test,001,2022-06-22_11h22.46.055,MemoryStudy,2022.1.4,59.90570841528775,
Mem,5,downhillski.jpg,P,P,JPG\,downhillski,C:\\Users\\Psychology\\Documents\\ABExperiment\\MemoryStudy\\resources\\JPG\\downhillski.jpg,C:\\Users\\Psychology\\Documents\\ABExperiment\\MemoryStudy\\resources\\JPG\\,0,153,153,153,,,,,,,85.9129800000228,None,1,0.057264700008090585,85.9129800000228,None,85.9129800000228,None,test,001,2022-06-22_11h22.46.055,MemoryStudy,2022.1.4,59.90570841528775,
Mem,5,ear.jpg,P,P,JPG\,ear,C:\\Users\\Psychology\\Documents\\ABExperiment\\MemoryStudy\\resources\\JPG\\ear.jpg,C:\\Users\\Psychology\\Documents\\ABExperiment\\MemoryStudy\\resources\\JPG\\,0,154,154,154,,,,,,,85.99940990001778,None,1,0.203232100000605,85.99940990001778,None,85.99940990001778,None,test,001,2022-06-22_11h22.46.055,MemoryStudy,2022.1.4,59.90570841528775,
Mem,5,eyepatch.jpg,P,P,JPG\,eyepatch,C:\\Users\\Psychology\\Documents\\ABExperiment\\MemoryStudy\\resources\\JPG\\eyepatch.jpg,C:\\Users\\Psychology\\Documents\\ABExperiment\\MemoryStudy\\resources\\JPG\\,0,155,155,155,,,,,,,86.2291763999965,None,1,0.1985456999973394,86.2291763999965,None,86.2291763999965,None,test,001,2022-06-22_11h22.46.055,MemoryStudy,2022.1.4,59.90570841528775,
Mem,5,funnel.jpg,P,P,JPG\,funnel,C:\\Users\\Psychology\\Documents\\ABExperiment\\MemoryStudy\\resources\\JPG\\funnel.jpg,C:\\Users\\Psychology\\Documents\\ABExperiment\\MemoryStudy\\resources\\JPG\\,0,156,156,156,,,,,,,86.46277300000656,None,1,0.18789770000148565,86.46277300000656,None,86.46277300000656,None,test,001,2022-06-22_11h22.46.055,MemoryStudy,2022.1.4,59.90570841528775,
Mem,5,hockeypuck.jpg,P,P,JPG\,hockeypuck,C:\\Users\\Psychology\\Documents\\ABExperiment\\MemoryStudy\\resources\\JPG\\hockeypuck.jpg,C:\\Users\\Psychology\\Documents\\ABExperiment\\MemoryStudy\\resources\\JPG\\,0,157,157,157,,,,,,,86.6796716999961,None,1,0.21906679999665357,86.6796716999961,None,86.6796716999961,None,test,001,2022-06-22_11h22.46.055,MemoryStudy,2022.1.4,59.90570841528775,
Mem,5,kiwi03.jpg,P,P,JPG\,kiwi03,C:\\Users\\Psychology\\Documents\\ABExperiment\\MemoryStudy\\resources\\JPG\\kiwi03.jpg,C:\\Users\\Psychology\\Documents\\ABExperiment\\MemoryStudy\\resources\\JPG\\,0,158,158,158,,,,,,,86.92987510000239,None,1,0.20971880000433885,86.92987510000239,None,86.92987510000239,None,test,001,2022-06-22_11h22.46.055,MemoryStudy,2022.1.4,59.90570841528775,
Mem,5,lollipop04.jpg,P,P,JPG\,lollipop04,C:\\Users\\Psychology\\Documents\\ABExperiment\\MemoryStudy\\resources\\JPG\\lollipop04.jpg,C:\\Users\\Psychology\\Documents\\ABExperiment\\MemoryStudy\\resources\\JPG\\,0,159,159,159,,,,,,,87.16346760001034,None,1,0.18299830000614747,87.16346760001034,None,87.16346760001034,None,test,001,2022-06-22_11h22.46.055,MemoryStudy,2022.1.4,59.90570841528775,
Mem,5,postalmailbox01.jpg,P,P,JPG\,postalmailbox01,C:\\Users\\Psychology\\Documents\\ABExperiment\\MemoryStudy\\resources\\JPG\\postalmailbox01.jpg,C:\\Users\\Psychology\\Documents\\ABExperiment\\MemoryStudy\\resources\\JPG\\,0,160,160,160,,,,,,,87.46743560000323,None,1,0.0793388000165578,87.46743560000323,None,87.46743560000323,None,test,001,2022-06-22_11h22.46.055,MemoryStudy,2022.1.4,59.90570841528775,
Mem,5,parachute.jpg,P,P,JPG\,parachute,C:\\Users\\Psychology\\Documents\\ABExperiment\\MemoryStudy\\resources\\JPG\\parachute.jpg,C:\\Users\\Psychology\\Documents\\ABExperiment\\MemoryStudy\\resources\\JPG\\,0,161,161,161,,,,,,,87.58050720000756,None,1,0.19842190001509152,87.58050720000756,None,87.58050720000756,None,test,001,2022-06-22_11h22.46.055,MemoryStudy,2022.1.4,59.90570841528775,
Mem,5,rockbass.jpg,P,P,JPG\,rockbass,C:\\Users\\Psychology\\Documents\\ABExperiment\\MemoryStudy\\resources\\JPG\\rockbass.jpg,C:\\Users\\Psychology\\Documents\\ABExperiment\\MemoryStudy\\resources\\JPG\\,0,162,162,162,,,,,,,87.8998266000126,None,1,0.09426730000996031,87.8998266000126,None,87.8998266000126,None,test,001,2022-06-22_11h22.46.055,MemoryStudy,2022.1.4,59.90570841528775,
Mem,5,rollerblade.jpg,P,P,JPG\,rollerblade,C:\\Users\\Psychology\\Documents\\ABExperiment\\MemoryStudy\\resources\\JPG\\rollerblade.jpg,C:\\Users\\Psychology\\Documents\\ABExperiment\\MemoryStudy\\resources\\JPG\\,0,163,163,163,,,,,,,88.01609360001748,None,1,0.43415360001381487,88.01609360001748,None,88.01609360001748,None,test,001,2022-06-22_11h22.46.055,MemoryStudy,2022.1.4,59.90570841528775,
Mem,5,saxophone.jpg,P,P,JPG\,saxophone,C:\\Users\\Psychology\\Documents\\ABExperiment\\MemoryStudy\\resources\\JPG\\saxophone.jpg,C:\\Users\\Psychology\\Documents\\ABExperiment\\MemoryStudy\\resources\\JPG\\,0,164,164,164,,,,,,,88.48138579999795,None,1,0.20079240002087317,88.48138579999795,None,88.48138579999795,None,test,001,2022-06-22_11h22.46.055,MemoryStudy,2022.1.4,59.90570841528775,
Mem,5,scooter.jpg,P,P,JPG\,scooter,C:\\Users\\Psychology\\Documents\\ABExperiment\\MemoryStudy\\resources\\JPG\\scooter.jpg,C:\\Users\\Psychology\\Documents\\ABExperiment\\MemoryStudy\\resources\\JPG\\,0,165,165,165,,,,,,,88.71495200000936,None,1,0.20725890001631342,88.71495200000936,None,88.71495200000936,None,test,001,2022-06-22_11h22.46.055,MemoryStudy,2022.1.4,59.90570841528775,
Mem,5,stepladder.jpg,P,P,JPG\,stepladder,C:\\Users\\Psychology\\Documents\\ABExperiment\\MemoryStudy\\resources\\JPG\\stepladder.jpg,C:\\Users\\Psychology\\Documents\\ABExperiment\\MemoryStudy\\resources\\JPG\\,0,166,166,166,,,,,,,89.02372570001171,None,1,0.12272280000615865,89.02372570001171,None,89.02372570001171,None,test,001,2022-06-22_11h22.46.055,MemoryStudy,2022.1.4,59.90570841528775,
Mem,5,licenseplate.jpg,P,P,JPG\,licenseplate,C:\\Users\\Psychology\\Documents\\ABExperiment\\MemoryStudy\\resources\\JPG\\licenseplate.jpg,C:\\Users\\Psychology\\Documents\\ABExperiment\\MemoryStudy\\resources\\JPG\\,0,167,167,167,,,,,,,89.18205120001221,None,1,0.17341650000889786,89.18205120001221,None,89.18205120001221,None,test,001,2022-06-22_11h22.46.055,MemoryStudy,2022.1.4,59.90570841528775,
Mem,5,shower.jpg,P,P,JPG\,shower,C:\\Users\\Psychology\\Documents\\ABExperiment\\MemoryStudy\\resources\\JPG\\shower.jpg,C:\\Users\\Psychology\\Documents\\ABExperiment\\MemoryStudy\\resources\\JPG\\,0,168,168,168,,,,,,,89.37975700001698,None,1,0.19086660002358258,89.37975700001698,None,89.37975700001698,None,test,001,2022-06-22_11h22.46.055,MemoryStudy,2022.1.4,59.90570841528775,
Mem,5,stubbywrench01a.jpg,P,P,JPG\,stubbywrench01a,C:\\Users\\Psychology\\Documents\\ABExperiment\\MemoryStudy\\resources\\JPG\\stubbywrench01a.jpg,C:\\Users\\Psychology\\Documents\\ABExperiment\\MemoryStudy\\resources\\JPG\\,0,169,169,169,,,,,,,89.59914190002019,None,1,0.18725789999007247,89.59914190002019,None,89.59914190002019,None,test,001,2022-06-22_11h22.46.055,MemoryStudy,2022.1.4,59.90570841528775,
Mem,5,baseballbat.jpg,P,P,JPG\,baseballbat,C:\\Users\\Psychology\\Documents\\ABExperiment\\MemoryStudy\\resources\\JPG\\baseballbat.jpg,C:\\Users\\Psychology\\Documents\\ABExperiment\\MemoryStudy\\resources\\JPG\\,0,170,170,170,,,,,,,89.81604200002039,None,1,0.19457659998442978,89.81604200002039,None,89.81604200002039,None,test,001,2022-06-22_11h22.46.055,MemoryStudy,2022.1.4,59.90570841528775,
Mem,5,bed.jpg,P,P,JPG\,bed,C:\\Users\\Psychology\\Documents\\ABExperiment\\MemoryStudy\\resources\\JPG\\bed.jpg,C:\\Users\\Psychology\\Documents\\ABExperiment\\MemoryStudy\\resources\\JPG\\,0,171,171,171,,,,,,,90.03045690001454,None,1,0.15638400000170805,90.03045690001454,None,90.03045690001454,None,test,001,2022-06-22_11h22.46.055,MemoryStudy,2022.1.4,59.90570841528775,
Mem,5,foldingchair.jpg,P,P,JPG\,foldingchair,C:\\Users\\Psychology\\Documents\\ABExperiment\\MemoryStudy\\resources\\JPG\\foldingchair.jpg,C:\\Users\\Psychology\\Documents\\ABExperiment\\MemoryStudy\\resources\\JPG\\,0,172,172,172,,,,,,,90.21654399999534,None,1,0.17815500000142492,90.21654399999534,None,90.21654399999534,None,test,001,2022-06-22_11h22.46.055,MemoryStudy,2022.1.4,59.90570841528775,
Mem,5,butterfly.jpg,P,P,JPG\,butterfly,C:\\Users\\Psychology\\Documents\\ABExperiment\\MemoryStudy\\resources\\JPG\\butterfly.jpg,C:\\Users\\Psychology\\Documents\\ABExperiment\\MemoryStudy\\resources\\JPG\\,0,173,173,173,,,,,,,90.41668610001216,None,1,0.18600269997841679,90.41668610001216,None,90.41668610001216,None,test,001,2022-06-22_11h22.46.055,MemoryStudy,2022.1.4,59.90570841528775,
Mem,5,car.jpg,P,P,JPG\,car,C:\\Users\\Psychology\\Documents\\ABExperiment\\MemoryStudy\\resources\\JPG\\car.jpg,C:\\Users\\Psychology\\Documents\\ABExperiment\\MemoryStudy\\resources\\JPG\\,0,174,174,174,,,,,,,90.63360780000221,None,1,0.16918369999621063,90.63360780000221,None,90.63360780000221,None,test,001,2022-06-22_11h22.46.055,MemoryStudy,2022.1.4,59.90570841528775,
Mem,5,chefshat.jpg,P,P,JPG\,chefshat,C:\\Users\\Psychology\\Documents\\ABExperiment\\MemoryStudy\\resources\\JPG\\chefshat.jpg,C:\\Users\\Psychology\\Documents\\ABExperiment\\MemoryStudy\\resources\\JPG\\,0,175,175,175,,,,,,,90.83376790001057,None,1,0.18486129998927936,90.83376790001057,None,90.83376790001057,None,test,001,2022-06-22_11h22.46.055,MemoryStudy,2022.1.4,59.90570841528775,
Mem,5,church.jpg,P,P,JPG\,church,C:\\Users\\Psychology\\Documents\\ABExperiment\\MemoryStudy\\resources\\JPG\\church.jpg,C:\\Users\\Psychology\\Documents\\ABExperiment\\MemoryStudy\\resources\\JPG\\,0,176,176,176,,,,,,,91.05066440001247,None,1,0.15195999998832121,91.05066440001247,None,91.05066440001247,None,test,001,2022-06-22_11h22.46.055,MemoryStudy,2022.1.4,59.90570841528775,
Mem,5,duck01.jpg,P,P,JPG\,duck01,C:\\Users\\Psychology\\Documents\\ABExperiment\\MemoryStudy\\resources\\JPG\\duck01.jpg,C:\\Users\\Psychology\\Documents\\ABExperiment\\MemoryStudy\\resources\\JPG\\,0,177,177,177,,,,,,,91.23414700001013,None,1,0.18431099998997524,91.23414700001013,None,91.23414700001013,None,test,001,2022-06-22_11h22.46.055,MemoryStudy,2022.1.4,59.90570841528775,
Mem,5,hand01b.jpg,P,P,JPG\,hand01b,C:\\Users\\Psychology\\Documents\\ABExperiment\\MemoryStudy\\resources\\JPG\\hand01b.jpg,C:\\Users\\Psychology\\Documents\\ABExperiment\\MemoryStudy\\resources\\JPG\\,0,178,178,178,,,,,,,91.45103990001371,None,1,0.19159899998339824,91.45103990001371,None,91.45103990001371,None,test,001,2022-06-22_11h22.46.055,MemoryStudy,2022.1.4,59.90570841528775,
Mem,5,hibiscusflower02.jpg,P,P,JPG\,hibiscusflower02,C:\\Users\\Psychology\\Documents\\ABExperiment\\MemoryStudy\\resources\\JPG\\hibiscusflower02.jpg,C:\\Users\\Psychology\\Documents\\ABExperiment\\MemoryStudy\\resources\\JPG\\,0,179,179,179,,,,,,,91.76655610001762,None,1,0.0762191999820061,91.76655610001762,None,91.76655610001762,None,test,001,2022-06-22_11h22.46.055,MemoryStudy,2022.1.4,59.90570841528775,
Mem,5,holdfast.jpg,P,P,JPG\,holdfast,C:\\Users\\Psychology\\Documents\\ABExperiment\\MemoryStudy\\resources\\JPG\\holdfast.jpg,C:\\Users\\Psychology\\Documents\\ABExperiment\\MemoryStudy\\resources\\JPG\\,0,180,180,180,,,,,,,91.86808360001305,None,1,0.16576720000011846,91.86808360001305,None,91.86808360001305,None,test,001,2022-06-22_11h22.46.055,MemoryStudy,2022.1.4,59.90570841528775,
Mem,5,lily.jpg,P,P,JPG\,lily,C:\\Users\\Psychology\\Documents\\ABExperiment\\MemoryStudy\\resources\\JPG\\lily.jpg,C:\\Users\\Psychology\\Documents\\ABExperiment\\MemoryStudy\\resources\\JPG\\,0,181,181,181,,,,,,,92.0683617000177,None,1,0.18270229999325238,92.0683617000177,None,92.0683617000177,None,test,001,2022-06-22_11h22.46.055,MemoryStudy,2022.1.4,59.90570841528775,
Mem,5,makiroll.jpg,P,P,JPG\,makiroll,C:\\Users\\Psychology\\Documents\\ABExperiment\\MemoryStudy\\resources\\JPG\\makiroll.jpg,C:\\Users\\Psychology\\Documents\\ABExperiment\\MemoryStudy\\resources\\JPG\\,0,182,182,182,,,,,,,92.28521040000487,None,1,0.1658109999843873,92.28521040000487,None,92.28521040000487,None,test,001,2022-06-22_11h22.46.055,MemoryStudy,2022.1.4,59.90570841528775,
Mem,5,microwave.jpg,P,P,JPG\,microwave,C:\\Users\\Psychology\\Documents\\ABExperiment\\MemoryStudy\\resources\\JPG\\microwave.jpg,C:\\Users\\Psychology\\Documents\\ABExperiment\\MemoryStudy\\resources\\JPG\\,0,183,183,183,,,,,,,92.48539080002229,None,1,0.16570860001957044,92.48539080002229,None,92.48539080002229,None,test,001,2022-06-22_11h22.46.055,MemoryStudy,2022.1.4,59.90570841528775,
Mem,5,penguin.jpg,P,P,JPG\,penguin,C:\\Users\\Psychology\\Documents\\ABExperiment\\MemoryStudy\\resources\\JPG\\penguin.jpg,C:\\Users\\Psychology\\Documents\\ABExperiment\\MemoryStudy\\resources\\JPG\\,0,184,184,184,,,,,,,92.68564140002127,None,1,0.17370980003033765,92.68564140002127,None,92.68564140002127,None,test,001,2022-06-22_11h22.46.055,MemoryStudy,2022.1.4,59.90570841528775,
Mem,5,smokingpipe.jpg,P,P,JPG\,smokingpipe,C:\\Users\\Psychology\\Documents\\ABExperiment\\MemoryStudy\\resources\\JPG\\smokingpipe.jpg,C:\\Users\\Psychology\\Documents\\ABExperiment\\MemoryStudy\\resources\\JPG\\,0,185,185,185,,,,,,,92.8857762000116,None,1,0.18079240000224672,92.8857762000116,None,92.8857762000116,None,test,001,2022-06-22_11h22.46.055,MemoryStudy,2022.1.4,59.90570841528775,
Mem,5,shovel01.jpg,P,P,JPG\,shovel01,C:\\Users\\Psychology\\Documents\\ABExperiment\\MemoryStudy\\resources\\JPG\\shovel01.jpg,C:\\Users\\Psychology\\Documents\\ABExperiment\\MemoryStudy\\resources\\JPG\\,0,186,186,186,,,,,,,93.08598360000178,None,1,0.1803037000063341,93.08598360000178,None,93.08598360000178,None,test,001,2022-06-22_11h22.46.055,MemoryStudy,2022.1.4,59.90570841528775,
Mem,5,spicerack.jpg,P,P,JPG\,spicerack,C:\\Users\\Psychology\\Documents\\ABExperiment\\MemoryStudy\\resources\\JPG\\spicerack.jpg,C:\\Users\\Psychology\\Documents\\ABExperiment\\MemoryStudy\\resources\\JPG\\,0,187,187,187,,,,,,,93.29428719999851,None,1,0.18021330001647584,93.29428719999851,None,93.29428719999851,None,test,001,2022-06-22_11h22.46.055,MemoryStudy,2022.1.4,59.90570841528775,
Mem,5,athleticsock.jpg,P,P,JPG\,athleticsock,C:\\Users\\Psychology\\Documents\\ABExperiment\\MemoryStudy\\resources\\JPG\\athleticsock.jpg,C:\\Users\\Psychology\\Documents\\ABExperiment\\MemoryStudy\\resources\\JPG\\,0,188,188,188,,,,,,,93.50221560001955,None,1,0.18135590001475066,93.50221560001955,None,93.50221560001955,None,test,001,2022-06-22_11h22.46.055,MemoryStudy,2022.1.4,59.90570841528775,
Mem,5,surfboard.jpg,P,P,JPG\,surfboard,C:\\Users\\Psychology\\Documents\\ABExperiment\\MemoryStudy\\resources\\JPG\\surfboard.jpg,C:\\Users\\Psychology\\Documents\\ABExperiment\\MemoryStudy\\resources\\JPG\\,0,189,189,189,,,,,,,93.70248120001634,None,1,0.20511840001563542,93.70248120001634,None,93.70248120001634,None,test,001,2022-06-22_11h22.46.055,MemoryStudy,2022.1.4,59.90570841528775,
Mem,5,sword01.jpg,P,P,JPG\,sword01,C:\\Users\\Psychology\\Documents\\ABExperiment\\MemoryStudy\\resources\\JPG\\sword01.jpg,C:\\Users\\Psychology\\Documents\\ABExperiment\\MemoryStudy\\resources\\JPG\\,0,190,190,190,,,,,,,93.93589069999871,None,1,0.17003710000426508,93.93589069999871,None,93.93589069999871,None,test,001,2022-06-22_11h22.46.055,MemoryStudy,2022.1.4,59.90570841528775,
Mem,5,table01.jpg,P,P,JPG\,table01,C:\\Users\\Psychology\\Documents\\ABExperiment\\MemoryStudy\\resources\\JPG\\table01.jpg,C:\\Users\\Psychology\\Documents\\ABExperiment\\MemoryStudy\\resources\\JPG\\,0,191,191,191,,,,,,,94.13472430000547,None,1,0.18742360000032932,94.13472430000547,None,94.13472430000547,None,test,001,2022-06-22_11h22.46.055,MemoryStudy,2022.1.4,59.90570841528775,
Mem,5,trumpet.jpg,P,P,JPG\,trumpet,C:\\Users\\Psychology\\Documents\\ABExperiment\\MemoryStudy\\resources\\JPG\\trumpet.jpg,C:\\Users\\Psychology\\Documents\\ABExperiment\\MemoryStudy\\resources\\JPG\\,0,192,192,192,,,,,,,94.35392200000933,None,1,0.19197990000247955,94.35392200000933,None,94.35392200000933,None,test,001,2022-06-22_11h22.46.055,MemoryStudy,2022.1.4,59.90570841528775,
Mem,5,marble.jpg,P,P,JPG\,marble,C:\\Users\\Psychology\\Documents\\ABExperiment\\MemoryStudy\\resources\\JPG\\marble.jpg,C:\\Users\\Psychology\\Documents\\ABExperiment\\MemoryStudy\\resources\\JPG\\,0,193,193,193,,,,,,,94.57076430000598,None,1,0.15113310000742786,94.57076430000598,None,94.57076430000598,None,test,001,2022-06-22_11h22.46.055,MemoryStudy,2022.1.4,59.90570841528775,
Mem,5,callbell.jpg,P,P,JPG\,callbell,C:\\Users\\Psychology\\Documents\\ABExperiment\\MemoryStudy\\resources\\JPG\\callbell.jpg,C:\\Users\\Psychology\\Documents\\ABExperiment\\MemoryStudy\\resources\\JPG\\,0,194,194,194,,,,,,,94.75430860000779,None,1,0.17556250002235174,94.75430860000779,None,94.75430860000779,None,test,001,2022-06-22_11h22.46.055,MemoryStudy,2022.1.4,59.90570841528775,
Mem,5,footballhelmet.jpg,P,P,JPG\,footballhelmet,C:\\Users\\Psychology\\Documents\\ABExperiment\\MemoryStudy\\resources\\JPG\\footballhelmet.jpg,C:\\Users\\Psychology\\Documents\\ABExperiment\\MemoryStudy\\resources\\JPG\\,0,195,195,195,,,,,,,94.95447200001217,None,1,0.1834173999959603,94.95447200001217,None,94.95447200001217,None,test,001,2022-06-22_11h22.46.055,MemoryStudy,2022.1.4,59.90570841528775,
Mem,5,honeybee.jpg,P,P,JPG\,honeybee,C:\\Users\\Psychology\\Documents\\ABExperiment\\MemoryStudy\\resources\\JPG\\honeybee.jpg,C:\\Users\\Psychology\\Documents\\ABExperiment\\MemoryStudy\\resources\\JPG\\,0,196,196,196,,,,,,,95.1816572000098,None,1,0.1651183000067249,95.1816572000098,None,95.1816572000098,None,test,001,2022-06-22_11h22.46.055,MemoryStudy,2022.1.4,59.90570841528775,
Mem,5,ipad02.jpg,P,P,JPG\,ipad02,C:\\Users\\Psychology\\Documents\\ABExperiment\\MemoryStudy\\resources\\JPG\\ipad02.jpg,C:\\Users\\Psychology\\Documents\\ABExperiment\\MemoryStudy\\resources\\JPG\\,0,197,197,197,,,,,,,95.37160579999909,None,1,0.1742108000034932,95.37160579999909,None,95.37160579999909,None,test,001,2022-06-22_11h22.46.055,MemoryStudy,2022.1.4,59.90570841528775,
Mem,5,pigeon.jpg,P,P,JPG\,pigeon,C:\\Users\\Psychology\\Documents\\ABExperiment\\MemoryStudy\\resources\\JPG\\pigeon.jpg,C:\\Users\\Psychology\\Documents\\ABExperiment\\MemoryStudy\\resources\\JPG\\,0,198,198,198,,,,,,,95.57181449999916,None,1,0.18306380001013167,95.57181449999916,None,95.57181449999916,None,test,001,2022-06-22_11h22.46.055,MemoryStudy,2022.1.4,59.90570841528775,
Mem,5,pingpongtable.jpg,P,P,JPG\,pingpongtable,C:\\Users\\Psychology\\Documents\\ABExperiment\\MemoryStudy\\resources\\JPG\\pingpongtable.jpg,C:\\Users\\Psychology\\Documents\\ABExperiment\\MemoryStudy\\resources\\JPG\\,0,199,199,199,,,,,,,95.7989235999994,None,1,0.15583810000680387,95.7989235999994,None,95.7989235999994,None,test,001,2022-06-22_11h22.46.055,MemoryStudy,2022.1.4,59.90570841528775,
Mem,5,flamingo.jpg,P,P,JPG\,flamingo,C:\\Users\\Psychology\\Documents\\ABExperiment\\MemoryStudy\\resources\\JPG\\flamingo.jpg,C:\\Users\\Psychology\\Documents\\ABExperiment\\MemoryStudy\\resources\\JPG\\,0,200,200,200,,,,,,,95.98902629999793,None,1,0.1906443999905605,95.98902629999793,None,95.98902629999793,None,test,001,2022-06-22_11h22.46.055,MemoryStudy,2022.1.4,59.90570841528775,
Mem,5,pokerchips.jpg,P,P,JPG\,pokerchips,C:\\Users\\Psychology\\Documents\\ABExperiment\\MemoryStudy\\resources\\JPG\\pokerchips.jpg,C:\\Users\\Psychology\\Documents\\ABExperiment\\MemoryStudy\\resources\\JPG\\,0,201,201,201,,,,,,,96.20575839999947,None,1,0.17397239999263547,96.20575839999947,None,96.20575839999947,None,test,001,2022-06-22_11h22.46.055,MemoryStudy,2022.1.4,59.90570841528775,
Mem,5,popcorn.jpg,P,P,JPG\,popcorn,C:\\Users\\Psychology\\Documents\\ABExperiment\\MemoryStudy\\resources\\JPG\\popcorn.jpg,C:\\Users\\Psychology\\Documents\\ABExperiment\\MemoryStudy\\resources\\JPG\\,0,202,202,202,,,,,,,96.40600930000073,None,1,0.18883389999973588,96.40600930000073,None,96.40600930000073,None,test,001,2022-06-22_11h22.46.055,MemoryStudy,2022.1.4,59.90570841528775,
Mem,5,punchingbag.jpg,P,P,JPG\,punchingbag,C:\\Users\\Psychology\\Documents\\ABExperiment\\MemoryStudy\\resources\\JPG\\punchingbag.jpg,C:\\Users\\Psychology\\Documents\\ABExperiment\\MemoryStudy\\resources\\JPG\\,0,203,203,203,,,,,,,96.62287110000034,None,1,0.1798570000100881,96.62287110000034,None,96.62287110000034,None,test,001,2022-06-22_11h22.46.055,MemoryStudy,2022.1.4,59.90570841528775,
Mem,5,recyclingbin.jpg,P,P,JPG\,recyclingbin,C:\\Users\\Psychology\\Documents\\ABExperiment\\MemoryStudy\\resources\\JPG\\recyclingbin.jpg,C:\\Users\\Psychology\\Documents\\ABExperiment\\MemoryStudy\\resources\\JPG\\,0,204,204,204,,,,,,,96.82300780000514,None,1,0.17975910002132878,96.82300780000514,None,96.82300780000514,None,test,001,2022-06-22_11h22.46.055,MemoryStudy,2022.1.4,59.90570841528775,
Mem,5,rose.jpg,P,P,JPG\,rose,C:\\Users\\Psychology\\Documents\\ABExperiment\\MemoryStudy\\resources\\JPG\\rose.jpg,C:\\Users\\Psychology\\Documents\\ABExperiment\\MemoryStudy\\resources\\JPG\\,0,205,205,205,,,,,,,97.023234399996,None,1,0.19543779999366961,97.023234399996,None,97.023234399996,None,test,001,2022-06-22_11h22.46.055,MemoryStudy,2022.1.4,59.90570841528775,
Mem,5,safe.jpg,P,P,JPG\,safe,C:\\Users\\Psychology\\Documents\\ABExperiment\\MemoryStudy\\resources\\JPG\\safe.jpg,C:\\Users\\Psychology\\Documents\\ABExperiment\\MemoryStudy\\resources\\JPG\\,0,206,206,206,,,,,,,97.24008800002048,None,1,0.1864614999794867,97.24008800002048,None,97.24008800002048,None,test,001,2022-06-22_11h22.46.055,MemoryStudy,2022.1.4,59.90570841528775,
Mem,99,pencil01.jpg,Z,Z,JPG\,pencil01,C:\\Users\\Psychology\\Documents\\ABExperiment\\MemoryStudy\\resources\\JPG\\pencil01.jpg,C:\\Users\\Psychology\\Documents\\ABExperiment\\MemoryStudy\\resources\\JPG\\,0,207,207,207,,,,,,,97.53021260001697,None,1,0.112738800002262,97.53021260001697,None,97.53021260001697,None,test,001,2022-06-22_11h22.46.055,MemoryStudy,2022.1.4,59.90570841528775,
Mem,99,foosballtable.jpg,Z,Z,JPG\,foosballtable,C:\\Users\\Psychology\\Documents\\ABExperiment\\MemoryStudy\\resources\\JPG\\foosballtable.jpg,C:\\Users\\Psychology\\Documents\\ABExperiment\\MemoryStudy\\resources\\JPG\\,0,208,208,208,,,,,,,97.67389830001048,None,1,0.1850032999936957,97.67389830001048,None,97.67389830001048,None,test,001,2022-06-22_11h22.46.055,MemoryStudy,2022.1.4,59.90570841528775,
Mem,99,banana01.jpg,Z,Z,JPG\,banana01,C:\\Users\\Psychology\\Documents\\ABExperiment\\MemoryStudy\\resources\\JPG\\banana01.jpg,C:\\Users\\Psychology\\Documents\\ABExperiment\\MemoryStudy\\resources\\JPG\\,0,209,209,209,,,,,,,97.97140340000624,None,1,0.10356429999228567,97.97140340000624,None,97.97140340000624,None,test,001,2022-06-22_11h22.46.055,MemoryStudy,2022.1.4,59.90570841528775,
Mem,99,lipstick02a.jpg,Z,Z,JPG\,lipstick02a,C:\\Users\\Psychology\\Documents\\ABExperiment\\MemoryStudy\\resources\\JPG\\lipstick02a.jpg,C:\\Users\\Psychology\\Documents\\ABExperiment\\MemoryStudy\\resources\\JPG\\,0,210,210,210,,,,,,,98.1927043000178,None,1,0.08962559999781661,98.1927043000178,None,98.1927043000178,None,test,001,2022-06-22_11h22.46.055,MemoryStudy,2022.1.4,59.90570841528775,
Mem,99,toaster01.jpg,Z,Z,JPG\,toaster01,C:\\Users\\Psychology\\Documents\\ABExperiment\\MemoryStudy\\resources\\JPG\\toaster01.jpg,C:\\Users\\Psychology\\Documents\\ABExperiment\\MemoryStudy\\resources\\JPG\\,0,211,211,211,,,,,,,98.39486210001633,None,1,0.12033689999952912,98.39486210001633,None,98.39486210001633,None,test,001,2022-06-22_11h22.46.055,MemoryStudy,2022.1.4,59.90570841528775,
Mem,99,grape01.jpg,Z,Z,JPG\,grape01,C:\\Users\\Psychology\\Documents\\ABExperiment\\MemoryStudy\\resources\\JPG\\grape01.jpg,C:\\Users\\Psychology\\Documents\\ABExperiment\\MemoryStudy\\resources\\JPG\\,0,212,212,212,,,,,,,98.63085260000662,None,1,0.09118950000265613,98.63085260000662,None,98.63085260000662,None,test,001,2022-06-22_11h22.46.055,MemoryStudy,2022.1.4,59.90570841528775,
Mem,99,key01.jpg,Z,Z,JPG\,key01,C:\\Users\\Psychology\\Documents\\ABExperiment\\MemoryStudy\\resources\\JPG\\key01.jpg,C:\\Users\\Psychology\\Documents\\ABExperiment\\MemoryStudy\\resources\\JPG\\,0,213,213,213,,,,,,,98.83175760001177,None,1,0.11488380000810139,98.83175760001177,None,98.83175760001177,None,test,001,2022-06-22_11h22.46.055,MemoryStudy,2022.1.4,59.90570841528775,
Mem,99,cellphone.jpg,Z,Z,JPG\,cellphone,C:\\Users\\Psychology\\Documents\\ABExperiment\\MemoryStudy\\resources\\JPG\\cellphone.jpg,C:\\Users\\Psychology\\Documents\\ABExperiment\\MemoryStudy\\resources\\JPG\\,0,214,214,214,,,,,,,99.0670558999991,None,1,0.10370460001286119,99.0670558999991,None,99.0670558999991,None,test,001,2022-06-22_11h22.46.055,MemoryStudy,2022.1.4,59.90570841528775,
Mem,99,screwdriver04b.jpg,Z,Z,JPG\,screwdriver04b,C:\\Users\\Psychology\\Documents\\ABExperiment\\MemoryStudy\\resources\\JPG\\screwdriver04b.jpg,C:\\Users\\Psychology\\Documents\\ABExperiment\\MemoryStudy\\resources\\JPG\\,0,215,215,215,,,,,,,99.27250059999642,None,1,0.09809660000610165,99.27250059999642,None,99.27250059999642,None,test,001,2022-06-22_11h22.46.055,MemoryStudy,2022.1.4,59.90570841528775,
Mem,99,pineapple01a.jpg,Z,Z,JPG\,pineapple01a,C:\\Users\\Psychology\\Documents\\ABExperiment\\MemoryStudy\\resources\\JPG\\pineapple01a.jpg,C:\\Users\\Psychology\\Documents\\ABExperiment\\MemoryStudy\\resources\\JPG\\,0,216,216,216,,,,,,,99.47833149999497,None,1,0.09164490000694059,99.47833149999497,None,99.47833149999497,None,test,001,2022-06-22_11h22.46.055,MemoryStudy,2022.1.4,59.90570841528775,
Mem,99,strawberry.jpg,Z,Z,JPG\,strawberry,C:\\Users\\Psychology\\Documents\\ABExperiment\\MemoryStudy\\resources\\JPG\\strawberry.jpg,C:\\Users\\Psychology\\Documents\\ABExperiment\\MemoryStudy\\resources\\JPG\\,0,217,217,217,,,,,,,99.69546479999553,None,1,0.07452410002588294,99.69546479999553,None,99.69546479999553,None,test,001,2022-06-22_11h22.46.055,MemoryStudy,2022.1.4,59.90570841528775,
Mem,99,teabag.jpg,Z,Z,JPG\,teabag,C:\\Users\\Psychology\\Documents\\ABExperiment\\MemoryStudy\\resources\\JPG\\teabag.jpg,C:\\Users\\Psychology\\Documents\\ABExperiment\\MemoryStudy\\resources\\JPG\\,0,218,218,218,,,,,,,99.86074770000414,None,1,0.13391050000791438,99.86074770000414,None,99.86074770000414,None,test,001,2022-06-22_11h22.46.055,MemoryStudy,2022.1.4,59.90570841528775,
Mem,99,dandelion.jpg,Z,Z,JPG\,dandelion,C:\\Users\\Psychology\\Documents\\ABExperiment\\MemoryStudy\\resources\\JPG\\dandelion.jpg,C:\\Users\\Psychology\\Documents\\ABExperiment\\MemoryStudy\\resources\\JPG\\,0,219,219,219,,,,,,,100.02795790001983,None,1,0.17404670000541955,100.02795790001983,None,100.02795790001983,None,test,001,2022-06-22_11h22.46.055,MemoryStudy,2022.1.4,59.90570841528775,
Mem,99,paintbrush01.jpg,Z,Z,JPG\,paintbrush01,C:\\Users\\Psychology\\Documents\\ABExperiment\\MemoryStudy\\resources\\JPG\\paintbrush01.jpg,C:\\Users\\Psychology\\Documents\\ABExperiment\\MemoryStudy\\resources\\JPG\\,0,220,220,220,,,,,,,100.30448449999676,None,1,0.11386000001220964,100.30448449999676,None,100.30448449999676,None,test,001,2022-06-22_11h22.46.055,MemoryStudy,2022.1.4,59.90570841528775,
Mem,99,celery.jpg,Z,Z,JPG\,celery,C:\\Users\\Psychology\\Documents\\ABExperiment\\MemoryStudy\\resources\\JPG\\celery.jpg,C:\\Users\\Psychology\\Documents\\ABExperiment\\MemoryStudy\\resources\\JPG\\,0,221,221,221,,,,,,,100.52577700000256,None,1,0.11749560001771897,100.52577700000256,None,100.52577700000256,None,test,001,2022-06-22_11h22.46.055,MemoryStudy,2022.1.4,59.90570841528775,
Mem,99,eraser.jpg,Z,Z,JPG\,eraser,C:\\Users\\Psychology\\Documents\\ABExperiment\\MemoryStudy\\resources\\JPG\\eraser.jpg,C:\\Users\\Psychology\\Documents\\ABExperiment\\MemoryStudy\\resources\\JPG\\,0,222,222,222,,,,,,,100.74206310001318,None,1,0.09246119999443181,100.74206310001318,None,100.74206310001318,None,test,001,2022-06-22_11h22.46.055,MemoryStudy,2022.1.4,59.90570841528775,
Mem,99,medal02b.jpg,Z,Z,JPG\,medal02b,C:\\Users\\Psychology\\Documents\\ABExperiment\\MemoryStudy\\resources\\JPG\\medal02b.jpg,C:\\Users\\Psychology\\Documents\\ABExperiment\\MemoryStudy\\resources\\JPG\\,0,223,223,223,,,,,,,100.96195630001603,None,1,0.08034849999239668,100.96195630001603,None,100.96195630001603,None,test,001,2022-06-22_11h22.46.055,MemoryStudy,2022.1.4,59.90570841528775,
Mem,99,hammer01.jpg,Z,Z,JPG\,hammer01,C:\\Users\\Psychology\\Documents\\ABExperiment\\MemoryStudy\\resources\\JPG\\hammer01.jpg,C:\\Users\\Psychology\\Documents\\ABExperiment\\MemoryStudy\\resources\\JPG\\,0,224,224,224,,,,,,,101.12786690000212,None,1,0.1300735000113491,101.12786690000212,None,101.12786690000212,None,test,001,2022-06-22_11h22.46.055,MemoryStudy,2022.1.4,59.90570841528775,
Mem,99,speaker04.jpg,Z,Z,JPG\,speaker04,C:\\Users\\Psychology\\Documents\\ABExperiment\\MemoryStudy\\resources\\JPG\\speaker04.jpg,C:\\Users\\Psychology\\Documents\\ABExperiment\\MemoryStudy\\resources\\JPG\\,0,225,225,225,,,,,,,101.38289110001642,None,1,0.08330880000721663,101.38289110001642,None,101.38289110001642,None,test,001,2022-06-22_11h22.46.055,MemoryStudy,2022.1.4,59.90570841528775,
Mem,99,mushroom01.jpg,Z,Z,JPG\,mushroom01,C:\\Users\\Psychology\\Documents\\ABExperiment\\MemoryStudy\\resources\\JPG\\mushroom01.jpg,C:\\Users\\Psychology\\Documents\\ABExperiment\\MemoryStudy\\resources\\JPG\\,0,226,226,226,,,,,,,101.5910802000144,None,1,0.07575279998127371,101.5910802000144,None,101.5910802000144,None,test,001,2022-06-22_11h22.46.055,MemoryStudy,2022.1.4,59.90570841528775,
Mem,99,pear01.jpg,Z,Z,JPG\,pear01,C:\\Users\\Psychology\\Documents\\ABExperiment\\MemoryStudy\\resources\\JPG\\pear01.jpg,C:\\Users\\Psychology\\Documents\\ABExperiment\\MemoryStudy\\resources\\JPG\\,0,227,227,227,,,,,,,101.78140180002083,None,1,0.1010385999979917,101.78140180002083,None,101.78140180002083,None,test,001,2022-06-22_11h22.46.055,MemoryStudy,2022.1.4,59.90570841528775,
Mem,99,comb02a.jpg,Z,Z,JPG\,comb02a,C:\\Users\\Psychology\\Documents\\ABExperiment\\MemoryStudy\\resources\\JPG\\comb02a.jpg,C:\\Users\\Psychology\\Documents\\ABExperiment\\MemoryStudy\\resources\\JPG\\,0,228,228,228,,,,,,,102.00605650001671,None,1,0.09204889999818988,102.00605650001671,None,102.00605650001671,None,test,001,2022-06-22_11h22.46.055,MemoryStudy,2022.1.4,59.90570841528775,
Mem,99,plate01b.jpg,Z,Z,JPG\,plate01b,C:\\Users\\Psychology\\Documents\\ABExperiment\\MemoryStudy\\resources\\JPG\\plate01b.jpg,C:\\Users\\Psychology\\Documents\\ABExperiment\\MemoryStudy\\resources\\JPG\\,0,229,229,229,,,,,,,102.18925140000647,None,1,0.14064619998680428,102.18925140000647,None,102.18925140000647,None,test,001,2022-06-22_11h22.46.055,MemoryStudy,2022.1.4,59.90570841528775,
Mem,99,clock01a.jpg,Z,Z,JPG\,clock01a,C:\\Users\\Psychology\\Documents\\ABExperiment\\MemoryStudy\\resources\\JPG\\clock01a.jpg,C:\\Users\\Psychology\\Documents\\ABExperiment\\MemoryStudy\\resources\\JPG\\,0,230,230,230,,,,,,,102.45756599999731,None,1,0.0815809000050649,102.45756599999731,None,102.45756599999731,None,test,001,2022-06-22_11h22.46.055,MemoryStudy,2022.1.4,59.90570841528775,
Mem,99,button01.jpg,Z,Z,JPG\,button01,C:\\Users\\Psychology\\Documents\\ABExperiment\\MemoryStudy\\resources\\JPG\\button01.jpg,C:\\Users\\Psychology\\Documents\\ABExperiment\\MemoryStudy\\resources\\JPG\\,0,231,231,231,,,,,,,102.66688790000626,None,1,0.08754219999536872,102.66688790000626,None,102.66688790000626,None,test,001,2022-06-22_11h22.46.055,MemoryStudy,2022.1.4,59.90570841528775,
Mem,99,globe.jpg,Z,Z,JPG\,globe,C:\\Users\\Psychology\\Documents\\ABExperiment\\MemoryStudy\\resources\\JPG\\globe.jpg,C:\\Users\\Psychology\\Documents\\ABExperiment\\MemoryStudy\\resources\\JPG\\,0,232,232,232,,,,,,,102.89081270000315,None,1,0.07157969998661429,102.89081270000315,None,102.89081270000315,None,test,001,2022-06-22_11h22.46.055,MemoryStudy,2022.1.4,59.90570841528775,
Mem,99,sewingmachine01a.jpg,Z,Z,JPG\,sewingmachine01a,C:\\Users\\Psychology\\Documents\\ABExperiment\\MemoryStudy\\resources\\JPG\\sewingmachine01a.jpg,C:\\Users\\Psychology\\Documents\\ABExperiment\\MemoryStudy\\resources\\JPG\\,0,233,233,233,,,,,,,103.07137990000774,None,1,0.11553390001063235,103.07137990000774,None,103.07137990000774,None,test,001,2022-06-22_11h22.46.055,MemoryStudy,2022.1.4,59.90570841528775,
Mem,99,scarf.jpg,Z,Z,JPG\,scarf,C:\\Users\\Psychology\\Documents\\ABExperiment\\MemoryStudy\\resources\\JPG\\scarf.jpg,C:\\Users\\Psychology\\Documents\\ABExperiment\\MemoryStudy\\resources\\JPG\\,0,234,234,234,,,,,,,103.30484550000983,None,1,0.09831999999005347,103.30484550000983,None,103.30484550000983,None,test,001,2022-06-22_11h22.46.055,MemoryStudy,2022.1.4,59.90570841528775,
Mem,99,carrot01.jpg,Z,Z,JPG\,carrot01,C:\\Users\\Psychology\\Documents\\ABExperiment\\MemoryStudy\\resources\\JPG\\carrot01.jpg,C:\\Users\\Psychology\\Documents\\ABExperiment\\MemoryStudy\\resources\\JPG\\,0,235,235,235,,,,,,,103.51931970001897,None,1,0.1151497999962885,103.51931970001897,None,103.51931970001897,None,test,001,2022-06-22_11h22.46.055,MemoryStudy,2022.1.4,59.90570841528775,
Mem,99,book01b.jpg,Z,Z,JPG\,book01b,C:\\Users\\Psychology\\Documents\\ABExperiment\\MemoryStudy\\resources\\JPG\\book01b.jpg,C:\\Users\\Psychology\\Documents\\ABExperiment\\MemoryStudy\\resources\\JPG\\,0,236,236,236,,,,,,,103.75812589999987,None,1,0.06857140001375228,103.75812589999987,None,103.75812589999987,None,test,001,2022-06-22_11h22.46.055,MemoryStudy,2022.1.4,59.90570841528775,
Mem,99,tennisball01b.jpg,Z,Z,JPG\,tennisball01b,C:\\Users\\Psychology\\Documents\\ABExperiment\\MemoryStudy\\resources\\JPG\\tennisball01b.jpg,C:\\Users\\Psychology\\Documents\\ABExperiment\\MemoryStudy\\resources\\JPG\\,0,237,237,237,,,,,,,103.94359589999658,None,1,0.0905514000041876,103.94359589999658,None,103.94359589999658,None,test,001,2022-06-22_11h22.46.055,MemoryStudy,2022.1.4,59.90570841528775,
Mem,99,handcuffs.jpg,Z,Z,JPG\,handcuffs,C:\\Users\\Psychology\\Documents\\ABExperiment\\MemoryStudy\\resources\\JPG\\handcuffs.jpg,C:\\Users\\Psychology\\Documents\\ABExperiment\\MemoryStudy\\resources\\JPG\\,0,238,238,238,,,,,,,104.07385169999907,None,1,0.16816800000378862,104.07385169999907,None,104.07385169999907,None,test,001,2022-06-22_11h22.46.055,MemoryStudy,2022.1.4,59.90570841528775,
Mem,99,feather03a.jpg,Z,Z,JPG\,feather03a,C:\\Users\\Psychology\\Documents\\ABExperiment\\MemoryStudy\\resources\\JPG\\feather03a.jpg,C:\\Users\\Psychology\\Documents\\ABExperiment\\MemoryStudy\\resources\\JPG\\,0,239,239,239,,,,,,,104.33590830001049,None,1,0.12235510000027716,104.33590830001049,None,104.33590830001049,None,test,001,2022-06-22_11h22.46.055,MemoryStudy,2022.1.4,59.90570841528775,
Mem,99,sock01a.jpg,Z,Z,JPG\,sock01a,C:\\Users\\Psychology\\Documents\\ABExperiment\\MemoryStudy\\resources\\JPG\\sock01a.jpg,C:\\Users\\Psychology\\Documents\\ABExperiment\\MemoryStudy\\resources\\JPG\\,0,240,240,240,,,,,,,104.56966609999654,None,1,0.08856109998305328,104.56966609999654,None,104.56966609999654,None,test,001,2022-06-22_11h22.46.055,MemoryStudy,2022.1.4,59.90570841528775,
Mem,99,printer02.jpg,Z,Z,JPG\,printer02,C:\\Users\\Psychology\\Documents\\ABExperiment\\MemoryStudy\\resources\\JPG\\printer02.jpg,C:\\Users\\Psychology\\Documents\\ABExperiment\\MemoryStudy\\resources\\JPG\\,0,241,241,241,,,,,,,104.76806630002102,None,1,0.10734250000678003,104.76806630002102,None,104.76806630002102,None,test,001,2022-06-22_11h22.46.055,MemoryStudy,2022.1.4,59.90570841528775,
Mem,99,garlic01a.jpg,Z,Z,JPG\,garlic01a,C:\\Users\\Psychology\\Documents\\ABExperiment\\MemoryStudy\\resources\\JPG\\garlic01a.jpg,C:\\Users\\Psychology\\Documents\\ABExperiment\\MemoryStudy\\resources\\JPG\\,0,242,242,242,,,,,,,104.98689640001976,None,1,0.08696050001890399,104.98689640001976,None,104.98689640001976,None,test,001,2022-06-22_11h22.46.055,MemoryStudy,2022.1.4,59.90570841528775,
Mem,99,watermelon01.jpg,Z,Z,JPG\,watermelon01,C:\\Users\\Psychology\\Documents\\ABExperiment\\MemoryStudy\\resources\\JPG\\watermelon01.jpg,C:\\Users\\Psychology\\Documents\\ABExperiment\\MemoryStudy\\resources\\JPG\\,0,243,243,243,,,,,,,105.18765140001778,None,1,0.10299779998604208,105.18765140001778,None,105.18765140001778,None,test,001,2022-06-22_11h22.46.055,MemoryStudy,2022.1.4,59.90570841528775,
Mem,99,stapler03a.jpg,Z,Z,JPG\,stapler03a,C:\\Users\\Psychology\\Documents\\ABExperiment\\MemoryStudy\\resources\\JPG\\stapler03a.jpg,C:\\Users\\Psychology\\Documents\\ABExperiment\\MemoryStudy\\resources\\JPG\\,0,244,244,244,,,,,,,105.45558999999776,None,1,0.05850240000290796,105.45558999999776,None,105.45558999999776,None,test,001,2022-06-22_11h22.46.055,MemoryStudy,2022.1.4,59.90570841528775,
Mem,99,microscope.jpg,Z,Z,JPG\,microscope,C:\\Users\\Psychology\\Documents\\ABExperiment\\MemoryStudy\\resources\\JPG\\microscope.jpg,C:\\Users\\Psychology\\Documents\\ABExperiment\\MemoryStudy\\resources\\JPG\\,0,245,245,245,,,,,,,105.62413750000997,None,1,0.09875229999306612,105.62413750000997,None,105.62413750000997,None,test,001,2022-06-22_11h22.46.055,MemoryStudy,2022.1.4,59.90570841528775,
Mem,99,blueberry01.jpg,Z,Z,JPG\,blueberry01,C:\\Users\\Psychology\\Documents\\ABExperiment\\MemoryStudy\\resources\\JPG\\blueberry01.jpg,C:\\Users\\Psychology\\Documents\\ABExperiment\\MemoryStudy\\resources\\JPG\\,0,246,246,246,,,,,,,105.82879319999483,None,1,0.0936080000246875,105.82879319999483,None,105.82879319999483,None,test,001,2022-06-22_11h22.46.055,MemoryStudy,2022.1.4,59.90570841528775,
Mem,99,computerkeyboard02.jpg,Z,Z,JPG\,computerkeyboard02,C:\\Users\\Psychology\\Documents\\ABExperiment\\MemoryStudy\\resources\\JPG\\computerkeyboard02.jpg,C:\\Users\\Psychology\\Documents\\ABExperiment\\MemoryStudy\\resources\\JPG\\,0,247,247,247,,,,,,,106.04010539999581,None,1,0.0904465000203345,106.04010539999581,None,106.04010539999581,None,test,001,2022-06-22_11h22.46.055,MemoryStudy,2022.1.4,59.90570841528775,
Mem,99,lamp04a.jpg,Z,Z,JPG\,lamp04a,C:\\Users\\Psychology\\Documents\\ABExperiment\\MemoryStudy\\resources\\JPG\\lamp04a.jpg,C:\\Users\\Psychology\\Documents\\ABExperiment\\MemoryStudy\\resources\\JPG\\,0,248,248,248,,,,,,,106.22328010000638,None,1,0.12308069999562576,106.22328010000638,None,106.22328010000638,None,test,001,2022-06-22_11h22.46.055,MemoryStudy,2022.1.4,59.90570841528775,
Mem,99,match.jpg,Z,Z,JPG\,match,C:\\Users\\Psychology\\Documents\\ABExperiment\\MemoryStudy\\resources\\JPG\\match.jpg,C:\\Users\\Psychology\\Documents\\ABExperiment\\MemoryStudy\\resources\\JPG\\,0,249,249,249,,,,,,,106.46110660000704,None,1,0.09341410000342876,106.46110660000704,None,106.46110660000704,None,test,001,2022-06-22_11h22.46.055,MemoryStudy,2022.1.4,59.90570841528775,
Mem,99,iron01b.jpg,Z,Z,JPG\,iron01b,C:\\Users\\Psychology\\Documents\\ABExperiment\\MemoryStudy\\resources\\JPG\\iron01b.jpg,C:\\Users\\Psychology\\Documents\\ABExperiment\\MemoryStudy\\resources\\JPG\\,0,250,250,250,,,,,,,106.66085270000622,None,1,0.11729409999679774,106.66085270000622,None,106.66085270000622,None,test,001,2022-06-22_11h22.46.055,MemoryStudy,2022.1.4,59.90570841528775,
Mem,99,ring01.jpg,Z,Z,JPG\,ring01,C:\\Users\\Psychology\\Documents\\ABExperiment\\MemoryStudy\\resources\\JPG\\ring01.jpg,C:\\Users\\Psychology\\Documents\\ABExperiment\\MemoryStudy\\resources\\JPG\\,0,251,251,251,,,,,,,106.87900159999845,None,1,0.10724100001971237,106.87900159999845,None,106.87900159999845,None,test,001,2022-06-22_11h22.46.055,MemoryStudy,2022.1.4,59.90570841528775,
Mem,99,pen04b.jpg,Z,Z,JPG\,pen04b,C:\\Users\\Psychology\\Documents\\ABExperiment\\MemoryStudy\\resources\\JPG\\pen04b.jpg,C:\\Users\\Psychology\\Documents\\ABExperiment\\MemoryStudy\\resources\\JPG\\,0,252,252,252,,,,,,,107.0974622000067,None,1,0.11256070001400076,107.0974622000067,None,107.0974622000067,None,test,001,2022-06-22_11h22.46.055,MemoryStudy,2022.1.4,59.90570841528775,
Mem,99,binoculars01b.jpg,Z,Z,JPG\,binoculars01b,C:\\Users\\Psychology\\Documents\\ABExperiment\\MemoryStudy\\resources\\JPG\\binoculars01b.jpg,C:\\Users\\Psychology\\Documents\\ABExperiment\\MemoryStudy\\resources\\JPG\\,0,253,253,253,,,,,,,107.3359683000017,None,1,0.07396209999569692,107.3359683000017,None,107.3359683000017,None,test,001,2022-06-22_11h22.46.055,MemoryStudy,2022.1.4,59.90570841528775,
Mem,99,cauliflower01.jpg,Z,Z,JPG\,cauliflower01,C:\\Users\\Psychology\\Documents\\ABExperiment\\MemoryStudy\\resources\\JPG\\cauliflower01.jpg,C:\\Users\\Psychology\\Documents\\ABExperiment\\MemoryStudy\\resources\\JPG\\,0,254,254,254,,,,,,,107.52457360000699,None,1,0.09362400000100024,107.52457360000699,None,107.52457360000699,None,test,001,2022-06-22_11h22.46.055,MemoryStudy,2022.1.4,59.90570841528775,
