TrialType,Lag,Image,T1PA,T2PA,PicFolder,Picture,FullPathName,FilePath,trials.thisRepN,trials.thisTrialN,trials.thisN,trials.thisIndex,text.started,text.stopped,End_Instructions.keys,End_Instructions.rt,End_Instructions.started,End_Instructions.stopped,MemTest.started,MemTest.stopped,MemResponse.keys,MemResponse.rt,MemResponse.started,MemResponse.stopped,Display.started,Display.stopped,participant,session,date,expName,psychopyVersion,frameRate,
,,,,,,,,,,,,,11.431076999986544,None,space,0.657505899987882,11.431076999986544,None,,,,,,,,,test,001,2022-06-22_09h36.04.130,MemoryStudy,2022.1.4,59.9356890044229,
Mem,1,giraffe.jpg,P,P,JPG\,giraffe,C:\\Users\\Psychology\\Documents\\ABExperiment\\MemoryStudy\\resources\\JPG\\giraffe.jpg,C:\\Users\\Psychology\\Documents\\ABExperiment\\MemoryStudy\\resources\\JPG\\,0,0,0,0,,,,,,,12.290053700009594,None,1,0.5431046000157949,12.290053700009594,None,12.290053700009594,None,test,001,2022-06-22_09h36.04.130,MemoryStudy,2022.1.4,59.9356890044229,
Mem,1,greathornowl.jpg,P,P,JPG\,greathornowl,C:\\Users\\Psychology\\Documents\\ABExperiment\\MemoryStudy\\resources\\JPG\\greathornowl.jpg,C:\\Users\\Psychology\\Documents\\ABExperiment\\MemoryStudy\\resources\\JPG\\,0,1,1,1,,,,,,,12.868912999983877,None,1,0.2440286000201013,12.868912999983877,None,12.868912999983877,None,test,001,2022-06-22_09h36.04.130,MemoryStudy,2022.1.4,59.9356890044229,
Mem,1,candle08b.jpg,P,P,JPG\,candle08b,C:\\Users\\Psychology\\Documents\\ABExperiment\\MemoryStudy\\resources\\JPG\\candle08b.jpg,C:\\Users\\Psychology\\Documents\\ABExperiment\\MemoryStudy\\resources\\JPG\\,0,2,2,2,,,,,,,13.232502200000454,None,1,0.14569589999155141,13.232502200000454,None,13.232502200000454,None,test,001,2022-06-22_09h36.04.130,MemoryStudy,2022.1.4,59.9356890044229,
Mem,1,horse.jpg,P,P,JPG\,horse,C:\\Users\\Psychology\\Documents\\ABExperiment\\MemoryStudy\\resources\\JPG\\horse.jpg,C:\\Users\\Psychology\\Documents\\ABExperiment\\MemoryStudy\\resources\\JPG\\,0,3,3,3,,,,,,,13.474099699989893,None,1,0.23983160001807846,13.474099699989893,None,13.474099699989893,None,test,001,2022-06-22_09h36.04.130,MemoryStudy,2022.1.4,59.9356890044229,
Mem,1,snowman.jpg,P,P,JPG\,snowman,C:\\Users\\Psychology\\Documents\\ABExperiment\\MemoryStudy\\resources\\JPG\\snowman.jpg,C:\\Users\\Psychology\\Documents\\ABExperiment\\MemoryStudy\\resources\\JPG\\,0,4,4,4,,,,,,,13.736126600007992,None,1,0.2648017999890726,13.736126600007992,None,13.736126600007992,None,test,001,2022-06-22_09h36.04.130,MemoryStudy,2022.1.4,59.9356890044229,
Mem,1,squirrel.jpg,P,P,JPG\,squirrel,C:\\Users\\Psychology\\Documents\\ABExperiment\\MemoryStudy\\resources\\JPG\\squirrel.jpg,C:\\Users\\Psychology\\Documents\\ABExperiment\\MemoryStudy\\resources\\JPG\\,0,5,5,5,,,,,,,14.03571880000527,None,1,0.2849888000055216,14.03571880000527,None,14.03571880000527,None,test,001,2022-06-22_09h36.04.130,MemoryStudy,2022.1.4,59.9356890044229,
Mem,1,firtree.jpg,P,P,JPG\,firtree,C:\\Users\\Psychology\\Documents\\ABExperiment\\MemoryStudy\\resources\\JPG\\firtree.jpg,C:\\Users\\Psychology\\Documents\\ABExperiment\\MemoryStudy\\resources\\JPG\\,0,6,6,6,,,,,,,14.445458100002725,None,1,0.11494329999550246,14.445458100002725,None,14.445458100002725,None,test,001,2022-06-22_09h36.04.130,MemoryStudy,2022.1.4,59.9356890044229,
Mem,1,bowlingball.jpg,P,P,JPG\,bowlingball,C:\\Users\\Psychology\\Documents\\ABExperiment\\MemoryStudy\\resources\\JPG\\bowlingball.jpg,C:\\Users\\Psychology\\Documents\\ABExperiment\\MemoryStudy\\resources\\JPG\\,0,7,7,7,,,,,,,14.588598100002855,None,1,0.24567289999686182,14.588598100002855,None,14.588598100002855,None,test,001,2022-06-22_09h36.04.130,MemoryStudy,2022.1.4,59.9356890044229,
Mem,1,bowlingpin.jpg,P,P,JPG\,bowlingpin,C:\\Users\\Psychology\\Documents\\ABExperiment\\MemoryStudy\\resources\\JPG\\bowlingpin.jpg,C:\\Users\\Psychology\\Documents\\ABExperiment\\MemoryStudy\\resources\\JPG\\,0,8,8,8,,,,,,,14.851900199981174,None,1,0.28444549997220747,14.851900199981174,None,14.851900199981174,None,test,001,2022-06-22_09h36.04.130,MemoryStudy,2022.1.4,59.9356890044229,
Mem,1,candycane01a.jpg,P,P,JPG\,candycane01a,C:\\Users\\Psychology\\Documents\\ABExperiment\\MemoryStudy\\resources\\JPG\\candycane01a.jpg,C:\\Users\\Psychology\\Documents\\ABExperiment\\MemoryStudy\\resources\\JPG\\,0,9,9,9,,,,,,,15.168714800005546,None,1,0.24864800000796095,15.168714800005546,None,15.168714800005546,None,test,001,2022-06-22_09h36.04.130,MemoryStudy,2022.1.4,59.9356890044229,
Mem,1,dolphin01.jpg,P,P,JPG\,dolphin01,C:\\Users\\Psychology\\Documents\\ABExperiment\\MemoryStudy\\resources\\JPG\\dolphin01.jpg,C:\\Users\\Psychology\\Documents\\ABExperiment\\MemoryStudy\\resources\\JPG\\,0,10,10,10,,,,,,,15.436077799997292,None,1,0.30124840000644326,15.436077799997292,None,15.436077799997292,None,test,001,2022-06-22_09h36.04.130,MemoryStudy,2022.1.4,59.9356890044229,
Mem,1,dromedary.jpg,P,P,JPG\,dromedary,C:\\Users\\Psychology\\Documents\\ABExperiment\\MemoryStudy\\resources\\JPG\\dromedary.jpg,C:\\Users\\Psychology\\Documents\\ABExperiment\\MemoryStudy\\resources\\JPG\\,0,11,11,11,,,,,,,15.76946969999699,None,1,0.2631421999831218,15.76946969999699,None,15.76946969999699,None,test,001,2022-06-22_09h36.04.130,MemoryStudy,2022.1.4,59.9356890044229,
Mem,1,football.jpg,P,P,JPG\,football,C:\\Users\\Psychology\\Documents\\ABExperiment\\MemoryStudy\\resources\\JPG\\football.jpg,C:\\Users\\Psychology\\Documents\\ABExperiment\\MemoryStudy\\resources\\JPG\\,0,12,12,12,,,,,,,16.053519100008998,None,1,0.25097500000265427,16.053519100008998,None,16.053519100008998,None,test,001,2022-06-22_09h36.04.130,MemoryStudy,2022.1.4,59.9356890044229,
Mem,1,golfball.jpg,P,P,JPG\,golfball,C:\\Users\\Psychology\\Documents\\ABExperiment\\MemoryStudy\\resources\\JPG\\golfball.jpg,C:\\Users\\Psychology\\Documents\\ABExperiment\\MemoryStudy\\resources\\JPG\\,0,13,13,13,,,,,,,16.33648830000311,None,1,0.2721880000026431,16.33648830000311,None,16.33648830000311,None,test,001,2022-06-22_09h36.04.130,MemoryStudy,2022.1.4,59.9356890044229,
Mem,1,guitarcase.jpg,P,P,JPG\,guitarcase,C:\\Users\\Psychology\\Documents\\ABExperiment\\MemoryStudy\\resources\\JPG\\guitarcase.jpg,C:\\Users\\Psychology\\Documents\\ABExperiment\\MemoryStudy\\resources\\JPG\\,0,14,14,14,,,,,,,16.636931999993976,None,1,0.27572060000966303,16.636931999993976,None,16.636931999993976,None,test,001,2022-06-22_09h36.04.130,MemoryStudy,2022.1.4,59.9356890044229,
Mem,1,jellybean.jpg,P,P,JPG\,jellybean,C:\\Users\\Psychology\\Documents\\ABExperiment\\MemoryStudy\\resources\\JPG\\jellybean.jpg,C:\\Users\\Psychology\\Documents\\ABExperiment\\MemoryStudy\\resources\\JPG\\,0,15,15,15,,,,,,,16.93751930000144,None,1,0.25490309999440797,16.93751930000144,None,16.93751930000144,None,test,001,2022-06-22_09h36.04.130,MemoryStudy,2022.1.4,59.9356890044229,
Mem,1,kangaroo.jpg,P,P,JPG\,kangaroo,C:\\Users\\Psychology\\Documents\\ABExperiment\\MemoryStudy\\resources\\JPG\\kangaroo.jpg,C:\\Users\\Psychology\\Documents\\ABExperiment\\MemoryStudy\\resources\\JPG\\,0,16,16,16,,,,,,,17.221023599995533,None,1,0.2596332000102848,17.221023599995533,None,17.221023599995533,None,test,001,2022-06-22_09h36.04.130,MemoryStudy,2022.1.4,59.9356890044229,
Mem,1,kite.jpg,P,P,JPG\,kite,C:\\Users\\Psychology\\Documents\\ABExperiment\\MemoryStudy\\resources\\JPG\\kite.jpg,C:\\Users\\Psychology\\Documents\\ABExperiment\\MemoryStudy\\resources\\JPG\\,0,17,17,17,,,,,,,17.504771599982632,None,1,0.2556881000055,17.504771599982632,None,17.504771599982632,None,test,001,2022-06-22_09h36.04.130,MemoryStudy,2022.1.4,59.9356890044229,
Mem,1,lightswitch01.jpg,P,P,JPG\,lightswitch01,C:\\Users\\Psychology\\Documents\\ABExperiment\\MemoryStudy\\resources\\JPG\\lightswitch01.jpg,C:\\Users\\Psychology\\Documents\\ABExperiment\\MemoryStudy\\resources\\JPG\\,0,18,18,18,,,,,,,17.788212599989492,None,1,0.24425379998865537,17.788212599989492,None,17.788212599989492,None,test,001,2022-06-22_09h36.04.130,MemoryStudy,2022.1.4,59.9356890044229,
Mem,1,locker.jpg,P,P,JPG\,locker,C:\\Users\\Psychology\\Documents\\ABExperiment\\MemoryStudy\\resources\\JPG\\locker.jpg,C:\\Users\\Psychology\\Documents\\ABExperiment\\MemoryStudy\\resources\\JPG\\,0,19,19,19,,,,,,,18.05521900000167,None,1,0.2582856999943033,18.05521900000167,None,18.05521900000167,None,test,001,2022-06-22_09h36.04.130,MemoryStudy,2022.1.4,59.9356890044229,
Mem,1,mailbox01.jpg,P,P,JPG\,mailbox01,C:\\Users\\Psychology\\Documents\\ABExperiment\\MemoryStudy\\resources\\JPG\\mailbox01.jpg,C:\\Users\\Psychology\\Documents\\ABExperiment\\MemoryStudy\\resources\\JPG\\,0,20,20,20,,,,,,,18.414160699991044,None,1,0.17908639999222942,18.414160699991044,None,18.414160699991044,None,test,001,2022-06-22_09h36.04.130,MemoryStudy,2022.1.4,59.9356890044229,
Mem,1,mailbox02.jpg,P,P,JPG\,mailbox02,C:\\Users\\Psychology\\Documents\\ABExperiment\\MemoryStudy\\resources\\JPG\\mailbox02.jpg,C:\\Users\\Psychology\\Documents\\ABExperiment\\MemoryStudy\\resources\\JPG\\,0,21,21,21,,,,,,,18.621950700005982,None,1,0.2587879999773577,18.621950700005982,None,18.621950700005982,None,test,001,2022-06-22_09h36.04.130,MemoryStudy,2022.1.4,59.9356890044229,
Mem,1,mattress.jpg,P,P,JPG\,mattress,C:\\Users\\Psychology\\Documents\\ABExperiment\\MemoryStudy\\resources\\JPG\\mattress.jpg,C:\\Users\\Psychology\\Documents\\ABExperiment\\MemoryStudy\\resources\\JPG\\,0,22,22,22,,,,,,,18.909794999985024,None,1,0.2507037000032142,18.909794999985024,None,18.909794999985024,None,test,001,2022-06-22_09h36.04.130,MemoryStudy,2022.1.4,59.9356890044229,
Mem,1,pumpkin.jpg,P,P,JPG\,pumpkin,C:\\Users\\Psychology\\Documents\\ABExperiment\\MemoryStudy\\resources\\JPG\\pumpkin.jpg,C:\\Users\\Psychology\\Documents\\ABExperiment\\MemoryStudy\\resources\\JPG\\,0,23,23,23,,,,,,,19.19361879999633,None,1,0.25475469999946654,19.19361879999633,None,19.19361879999633,None,test,001,2022-06-22_09h36.04.130,MemoryStudy,2022.1.4,59.9356890044229,
Mem,1,schoolbus.jpg,P,P,JPG\,schoolbus,C:\\Users\\Psychology\\Documents\\ABExperiment\\MemoryStudy\\resources\\JPG\\schoolbus.jpg,C:\\Users\\Psychology\\Documents\\ABExperiment\\MemoryStudy\\resources\\JPG\\,0,24,24,24,,,,,,,19.48909270000877,None,1,0.2634091999789234,19.48909270000877,None,19.48909270000877,None,test,001,2022-06-22_09h36.04.130,MemoryStudy,2022.1.4,59.9356890044229,
Mem,1,skateboard.jpg,P,P,JPG\,skateboard,C:\\Users\\Psychology\\Documents\\ABExperiment\\MemoryStudy\\resources\\JPG\\skateboard.jpg,C:\\Users\\Psychology\\Documents\\ABExperiment\\MemoryStudy\\resources\\JPG\\,0,25,25,25,,,,,,,19.773175699985586,None,1,0.2441953000088688,19.773175699985586,None,19.773175699985586,None,test,001,2022-06-22_09h36.04.130,MemoryStudy,2022.1.4,59.9356890044229,
Mem,1,soccerball.jpg,P,P,JPG\,soccerball,C:\\Users\\Psychology\\Documents\\ABExperiment\\MemoryStudy\\resources\\JPG\\soccerball.jpg,C:\\Users\\Psychology\\Documents\\ABExperiment\\MemoryStudy\\resources\\JPG\\,0,26,26,26,,,,,,,20.04001949998201,None,1,0.240578099997947,20.04001949998201,None,20.04001949998201,None,test,001,2022-06-22_09h36.04.130,MemoryStudy,2022.1.4,59.9356890044229,
Mem,1,wheelchair.jpg,P,P,JPG\,wheelchair,C:\\Users\\Psychology\\Documents\\ABExperiment\\MemoryStudy\\resources\\JPG\\wheelchair.jpg,C:\\Users\\Psychology\\Documents\\ABExperiment\\MemoryStudy\\resources\\JPG\\,0,27,27,27,,,,,,,20.306944399984786,None,1,0.2617129999853205,20.306944399984786,None,20.306944399984786,None,test,001,2022-06-22_09h36.04.130,MemoryStudy,2022.1.4,59.9356890044229,
Mem,1,zebra.jpg,P,P,JPG\,zebra,C:\\Users\\Psychology\\Documents\\ABExperiment\\MemoryStudy\\resources\\JPG\\zebra.jpg,C:\\Users\\Psychology\\Documents\\ABExperiment\\MemoryStudy\\resources\\JPG\\,0,28,28,28,,,,,,,20.59054410000681,None,1,0.266098799998872,20.59054410000681,None,20.59054410000681,None,test,001,2022-06-22_09h36.04.130,MemoryStudy,2022.1.4,59.9356890044229,
Mem,1,pooltable.jpg,P,P,JPG\,pooltable,C:\\Users\\Psychology\\Documents\\ABExperiment\\MemoryStudy\\resources\\JPG\\pooltable.jpg,C:\\Users\\Psychology\\Documents\\ABExperiment\\MemoryStudy\\resources\\JPG\\,0,29,29,29,,,,,,,20.878886799997417,None,1,0.2497092999983579,20.878886799997417,None,20.878886799997417,None,test,001,2022-06-22_09h36.04.130,MemoryStudy,2022.1.4,59.9356890044229,
Mem,1,swing.jpg,P,P,JPG\,swing,C:\\Users\\Psychology\\Documents\\ABExperiment\\MemoryStudy\\resources\\JPG\\swing.jpg,C:\\Users\\Psychology\\Documents\\ABExperiment\\MemoryStudy\\resources\\JPG\\,0,30,30,30,,,,,,,21.158887099998537,None,1,0.2585865000146441,21.158887099998537,None,21.158887099998537,None,test,001,2022-06-22_09h36.04.130,MemoryStudy,2022.1.4,59.9356890044229,
Mem,1,africanelephant.jpg,P,P,JPG\,africanelephant,C:\\Users\\Psychology\\Documents\\ABExperiment\\MemoryStudy\\resources\\JPG\\africanelephant.jpg,C:\\Users\\Psychology\\Documents\\ABExperiment\\MemoryStudy\\resources\\JPG\\,0,31,31,31,,,,,,,21.44218980000005,None,1,0.24606409997795708,21.44218980000005,None,21.44218980000005,None,test,001,2022-06-22_09h36.04.130,MemoryStudy,2022.1.4,59.9356890044229,
Mem,1,apron.jpg,P,P,JPG\,apron,C:\\Users\\Psychology\\Documents\\ABExperiment\\MemoryStudy\\resources\\JPG\\apron.jpg,C:\\Users\\Psychology\\Documents\\ABExperiment\\MemoryStudy\\resources\\JPG\\,0,32,32,32,,,,,,,21.70895830000518,None,1,0.2772788000002038,21.70895830000518,None,21.70895830000518,None,test,001,2022-06-22_09h36.04.130,MemoryStudy,2022.1.4,59.9356890044229,
Mem,1,barnowl.jpg,P,P,JPG\,barnowl,C:\\Users\\Psychology\\Documents\\ABExperiment\\MemoryStudy\\resources\\JPG\\barnowl.jpg,C:\\Users\\Psychology\\Documents\\ABExperiment\\MemoryStudy\\resources\\JPG\\,0,33,33,33,,,,,,,22.094372299994575,None,1,0.1947801999922376,22.094372299994575,None,22.094372299994575,None,test,001,2022-06-22_09h36.04.130,MemoryStudy,2022.1.4,59.9356890044229,
Mem,1,basketball01.jpg,P,P,JPG\,basketball01,C:\\Users\\Psychology\\Documents\\ABExperiment\\MemoryStudy\\resources\\JPG\\basketball01.jpg,C:\\Users\\Psychology\\Documents\\ABExperiment\\MemoryStudy\\resources\\JPG\\,0,34,34,34,,,,,,,22.311583400005475,None,1,0.28972329999669455,22.311583400005475,None,22.311583400005475,None,test,001,2022-06-22_09h36.04.130,MemoryStudy,2022.1.4,59.9356890044229,
Mem,1,bat.jpg,P,P,JPG\,bat,C:\\Users\\Psychology\\Documents\\ABExperiment\\MemoryStudy\\resources\\JPG\\bat.jpg,C:\\Users\\Psychology\\Documents\\ABExperiment\\MemoryStudy\\resources\\JPG\\,0,35,35,35,,,,,,,22.628559000004316,None,1,0.2606231999816373,22.628559000004316,None,22.628559000004316,None,test,001,2022-06-22_09h36.04.130,MemoryStudy,2022.1.4,59.9356890044229,
Mem,1,cloud.jpg,P,P,JPG\,cloud,C:\\Users\\Psychology\\Documents\\ABExperiment\\MemoryStudy\\resources\\JPG\\cloud.jpg,C:\\Users\\Psychology\\Documents\\ABExperiment\\MemoryStudy\\resources\\JPG\\,0,36,36,36,,,,,,,22.924313800001983,None,1,0.2609863999823574,22.924313800001983,None,22.924313800001983,None,test,001,2022-06-22_09h36.04.130,MemoryStudy,2022.1.4,59.9356890044229,
Mem,1,crab01.jpg,P,P,JPG\,crab01,C:\\Users\\Psychology\\Documents\\ABExperiment\\MemoryStudy\\resources\\JPG\\crab01.jpg,C:\\Users\\Psychology\\Documents\\ABExperiment\\MemoryStudy\\resources\\JPG\\,0,37,37,37,,,,,,,23.212421200005338,None,1,0.26077039999654517,23.212421200005338,None,23.212421200005338,None,test,001,2022-06-22_09h36.04.130,MemoryStudy,2022.1.4,59.9356890044229,
Mem,1,cupcake.jpg,P,P,JPG\,cupcake,C:\\Users\\Psychology\\Documents\\ABExperiment\\MemoryStudy\\resources\\JPG\\cupcake.jpg,C:\\Users\\Psychology\\Documents\\ABExperiment\\MemoryStudy\\resources\\JPG\\,0,38,38,38,,,,,,,23.496022100007394,None,1,0.2726018999819644,23.496022100007394,None,23.496022100007394,None,test,001,2022-06-22_09h36.04.130,MemoryStudy,2022.1.4,59.9356890044229,
Mem,1,donut.jpg,P,P,JPG\,donut,C:\\Users\\Psychology\\Documents\\ABExperiment\\MemoryStudy\\resources\\JPG\\donut.jpg,C:\\Users\\Psychology\\Documents\\ABExperiment\\MemoryStudy\\resources\\JPG\\,0,39,39,39,,,,,,,23.793761499982793,None,1,0.27092979999724776,23.793761499982793,None,23.793761499982793,None,test,001,2022-06-22_09h36.04.130,MemoryStudy,2022.1.4,59.9356890044229,
Mem,1,eiffeltower.jpg,P,P,JPG\,eiffeltower,C:\\Users\\Psychology\\Documents\\ABExperiment\\MemoryStudy\\resources\\JPG\\eiffeltower.jpg,C:\\Users\\Psychology\\Documents\\ABExperiment\\MemoryStudy\\resources\\JPG\\,0,40,40,40,,,,,,,24.09412870000233,None,1,0.2665650999988429,24.09412870000233,None,24.09412870000233,None,test,001,2022-06-22_09h36.04.130,MemoryStudy,2022.1.4,59.9356890044229,
Mem,1,exitsign.jpg,P,P,JPG\,exitsign,C:\\Users\\Psychology\\Documents\\ABExperiment\\MemoryStudy\\resources\\JPG\\exitsign.jpg,C:\\Users\\Psychology\\Documents\\ABExperiment\\MemoryStudy\\resources\\JPG\\,0,41,41,41,,,,,,,24.377626600005897,None,1,0.2632815999968443,24.377626600005897,None,24.377626600005897,None,test,001,2022-06-22_09h36.04.130,MemoryStudy,2022.1.4,59.9356890044229,
Mem,1,fortunecookie.jpg,P,P,JPG\,fortunecookie,C:\\Users\\Psychology\\Documents\\ABExperiment\\MemoryStudy\\resources\\JPG\\fortunecookie.jpg,C:\\Users\\Psychology\\Documents\\ABExperiment\\MemoryStudy\\resources\\JPG\\,0,42,42,42,,,,,,,24.66136749999714,None,1,0.2684049000090454,24.66136749999714,None,24.66136749999714,None,test,001,2022-06-22_09h36.04.130,MemoryStudy,2022.1.4,59.9356890044229,
Mem,1,harmonica.jpg,P,P,JPG\,harmonica,C:\\Users\\Psychology\\Documents\\ABExperiment\\MemoryStudy\\resources\\JPG\\harmonica.jpg,C:\\Users\\Psychology\\Documents\\ABExperiment\\MemoryStudy\\resources\\JPG\\,0,43,43,43,,,,,,,24.96145949998754,None,1,0.21645559999160469,24.96145949998754,None,24.96145949998754,None,test,001,2022-06-22_09h36.04.130,MemoryStudy,2022.1.4,59.9356890044229,
Mem,1,doghouse.jpg,P,P,JPG\,doghouse,C:\\Users\\Psychology\\Documents\\ABExperiment\\MemoryStudy\\resources\\JPG\\doghouse.jpg,C:\\Users\\Psychology\\Documents\\ABExperiment\\MemoryStudy\\resources\\JPG\\,0,44,44,44,,,,,,,25.19524790000287,None,1,0.2537554999871645,25.19524790000287,None,25.19524790000287,None,test,001,2022-06-22_09h36.04.130,MemoryStudy,2022.1.4,59.9356890044229,
Mem,1,ladder.jpg,P,P,JPG\,ladder,C:\\Users\\Psychology\\Documents\\ABExperiment\\MemoryStudy\\resources\\JPG\\ladder.jpg,C:\\Users\\Psychology\\Documents\\ABExperiment\\MemoryStudy\\resources\\JPG\\,0,45,45,45,,,,,,,25.47872980000102,None,1,0.24253970000427216,25.47872980000102,None,25.47872980000102,None,test,001,2022-06-22_09h36.04.130,MemoryStudy,2022.1.4,59.9356890044229,
Mem,1,lawnmower.jpg,P,P,JPG\,lawnmower,C:\\Users\\Psychology\\Documents\\ABExperiment\\MemoryStudy\\resources\\JPG\\lawnmower.jpg,C:\\Users\\Psychology\\Documents\\ABExperiment\\MemoryStudy\\resources\\JPG\\,0,46,46,46,,,,,,,25.74578460000339,None,1,0.2547223000146914,25.74578460000339,None,25.74578460000339,None,test,001,2022-06-22_09h36.04.130,MemoryStudy,2022.1.4,59.9356890044229,
Mem,1,parkingsign.jpg,P,P,JPG\,parkingsign,C:\\Users\\Psychology\\Documents\\ABExperiment\\MemoryStudy\\resources\\JPG\\parkingsign.jpg,C:\\Users\\Psychology\\Documents\\ABExperiment\\MemoryStudy\\resources\\JPG\\,0,47,47,47,,,,,,,26.029401100007817,None,1,0.23517800000263378,26.029401100007817,None,26.029401100007817,None,test,001,2022-06-22_09h36.04.130,MemoryStudy,2022.1.4,59.9356890044229,
Mem,1,skunk.jpg,P,P,JPG\,skunk,C:\\Users\\Psychology\\Documents\\ABExperiment\\MemoryStudy\\resources\\JPG\\skunk.jpg,C:\\Users\\Psychology\\Documents\\ABExperiment\\MemoryStudy\\resources\\JPG\\,0,48,48,48,,,,,,,26.296135199983837,None,1,0.25670079997507855,26.296135199983837,None,26.296135199983837,None,test,001,2022-06-22_09h36.04.130,MemoryStudy,2022.1.4,59.9356890044229,
Mem,1,snowboard.jpg,P,P,JPG\,snowboard,C:\\Users\\Psychology\\Documents\\ABExperiment\\MemoryStudy\\resources\\JPG\\snowboard.jpg,C:\\Users\\Psychology\\Documents\\ABExperiment\\MemoryStudy\\resources\\JPG\\,0,49,49,49,,,,,,,26.579782599990722,None,1,0.24511239997809753,26.579782599990722,None,26.579782599990722,None,test,001,2022-06-22_09h36.04.130,MemoryStudy,2022.1.4,59.9356890044229,
Mem,1,tiger02.jpg,P,P,JPG\,tiger02,C:\\Users\\Psychology\\Documents\\ABExperiment\\MemoryStudy\\resources\\JPG\\tiger02.jpg,C:\\Users\\Psychology\\Documents\\ABExperiment\\MemoryStudy\\resources\\JPG\\,0,50,50,50,,,,,,,26.84678399999393,None,1,0.2662070000078529,26.84678399999393,None,26.84678399999393,None,test,001,2022-06-22_09h36.04.130,MemoryStudy,2022.1.4,59.9356890044229,
Mem,1,tree.jpg,P,P,JPG\,tree,C:\\Users\\Psychology\\Documents\\ABExperiment\\MemoryStudy\\resources\\JPG\\tree.jpg,C:\\Users\\Psychology\\Documents\\ABExperiment\\MemoryStudy\\resources\\JPG\\,0,51,51,51,,,,,,,27.133334199985256,None,1,0.25135730000329204,27.133334199985256,None,27.133334199985256,None,test,001,2022-06-22_09h36.04.130,MemoryStudy,2022.1.4,59.9356890044229,
Mem,1,waterfall.jpg,P,P,JPG\,waterfall,C:\\Users\\Psychology\\Documents\\ABExperiment\\MemoryStudy\\resources\\JPG\\waterfall.jpg,C:\\Users\\Psychology\\Documents\\ABExperiment\\MemoryStudy\\resources\\JPG\\,0,52,52,52,,,,,,,27.414259499986656,None,1,0.24266550000174902,27.414259499986656,None,27.414259499986656,None,test,001,2022-06-22_09h36.04.130,MemoryStudy,2022.1.4,59.9356890044229,
Mem,1,bow.jpg,P,P,JPG\,bow,C:\\Users\\Psychology\\Documents\\ABExperiment\\MemoryStudy\\resources\\JPG\\bow.jpg,C:\\Users\\Psychology\\Documents\\ABExperiment\\MemoryStudy\\resources\\JPG\\,0,53,53,53,,,,,,,27.68085139998584,None,1,0.24019949999637902,27.68085139998584,None,27.68085139998584,None,test,001,2022-06-22_09h36.04.130,MemoryStudy,2022.1.4,59.9356890044229,
Mem,1,arugula.jpg,P,P,JPG\,arugula,C:\\Users\\Psychology\\Documents\\ABExperiment\\MemoryStudy\\resources\\JPG\\arugula.jpg,C:\\Users\\Psychology\\Documents\\ABExperiment\\MemoryStudy\\resources\\JPG\\,0,54,54,54,,,,,,,28.07508099998813,None,1,0.13392639998346567,28.07508099998813,None,28.07508099998813,None,test,001,2022-06-22_09h36.04.130,MemoryStudy,2022.1.4,59.9356890044229,
Mem,1,beaver.jpg,P,P,JPG\,beaver,C:\\Users\\Psychology\\Documents\\ABExperiment\\MemoryStudy\\resources\\JPG\\beaver.jpg,C:\\Users\\Psychology\\Documents\\ABExperiment\\MemoryStudy\\resources\\JPG\\,0,55,55,55,,,,,,,28.231485900003463,None,1,0.28941840000334196,28.231485900003463,None,28.231485900003463,None,test,001,2022-06-22_09h36.04.130,MemoryStudy,2022.1.4,59.9356890044229,
Mem,1,snowglobe.jpg,P,P,JPG\,snowglobe,C:\\Users\\Psychology\\Documents\\ABExperiment\\MemoryStudy\\resources\\JPG\\snowglobe.jpg,C:\\Users\\Psychology\\Documents\\ABExperiment\\MemoryStudy\\resources\\JPG\\,0,56,56,56,,,,,,,28.628048299986403,None,1,0.19636430000537075,28.628048299986403,None,28.628048299986403,None,test,001,2022-06-22_09h36.04.130,MemoryStudy,2022.1.4,59.9356890044229,
Mem,1,bullet.jpg,P,P,JPG\,bullet,C:\\Users\\Psychology\\Documents\\ABExperiment\\MemoryStudy\\resources\\JPG\\bullet.jpg,C:\\Users\\Psychology\\Documents\\ABExperiment\\MemoryStudy\\resources\\JPG\\,0,57,57,57,,,,,,,28.851519299991196,None,1,0.2767401000019163,28.851519299991196,None,28.851519299991196,None,test,001,2022-06-22_09h36.04.130,MemoryStudy,2022.1.4,59.9356890044229,
Mem,1,cactus.jpg,P,P,JPG\,cactus,C:\\Users\\Psychology\\Documents\\ABExperiment\\MemoryStudy\\resources\\JPG\\cactus.jpg,C:\\Users\\Psychology\\Documents\\ABExperiment\\MemoryStudy\\resources\\JPG\\,0,58,58,58,,,,,,,29.150244299991755,None,1,0.2661767000099644,29.150244299991755,None,29.150244299991755,None,test,001,2022-06-22_09h36.04.130,MemoryStudy,2022.1.4,59.9356890044229,
Mem,1,cow.jpg,P,P,JPG\,cow,C:\\Users\\Psychology\\Documents\\ABExperiment\\MemoryStudy\\resources\\JPG\\cow.jpg,C:\\Users\\Psychology\\Documents\\ABExperiment\\MemoryStudy\\resources\\JPG\\,0,59,59,59,,,,,,,29.451880200009327,None,1,0.2206669999868609,29.451880200009327,None,29.451880200009327,None,test,001,2022-06-22_09h36.04.130,MemoryStudy,2022.1.4,59.9356890044229,
Mem,1,discoball.jpg,P,P,JPG\,discoball,C:\\Users\\Psychology\\Documents\\ABExperiment\\MemoryStudy\\resources\\JPG\\discoball.jpg,C:\\Users\\Psychology\\Documents\\ABExperiment\\MemoryStudy\\resources\\JPG\\,0,60,60,60,,,,,,,29.700408500008052,None,1,0.2119358999771066,29.700408500008052,None,29.700408500008052,None,test,001,2022-06-22_09h36.04.130,MemoryStudy,2022.1.4,59.9356890044229,
Mem,1,drumstick.jpg,P,P,JPG\,drumstick,C:\\Users\\Psychology\\Documents\\ABExperiment\\MemoryStudy\\resources\\JPG\\drumstick.jpg,C:\\Users\\Psychology\\Documents\\ABExperiment\\MemoryStudy\\resources\\JPG\\,0,61,61,61,,,,,,,29.933830699999817,None,1,0.21844540000893176,29.933830699999817,None,29.933830699999817,None,test,001,2022-06-22_09h36.04.130,MemoryStudy,2022.1.4,59.9356890044229,
Mem,1,fingerprint.jpg,P,P,JPG\,fingerprint,C:\\Users\\Psychology\\Documents\\ABExperiment\\MemoryStudy\\resources\\JPG\\fingerprint.jpg,C:\\Users\\Psychology\\Documents\\ABExperiment\\MemoryStudy\\resources\\JPG\\,0,62,62,62,,,,,,,30.183868899999652,None,1,0.19332969997776672,30.183868899999652,None,30.183868899999652,None,test,001,2022-06-22_09h36.04.130,MemoryStudy,2022.1.4,59.9356890044229,
Mem,1,hockeystick.jpg,P,P,JPG\,hockeystick,C:\\Users\\Psychology\\Documents\\ABExperiment\\MemoryStudy\\resources\\JPG\\hockeystick.jpg,C:\\Users\\Psychology\\Documents\\ABExperiment\\MemoryStudy\\resources\\JPG\\,0,63,63,63,,,,,,,30.40109709999524,None,1,0.21591020000050776,30.40109709999524,None,30.40109709999524,None,test,001,2022-06-22_09h36.04.130,MemoryStudy,2022.1.4,59.9356890044229,
Mem,1,hulahoop.jpg,P,P,JPG\,hulahoop,C:\\Users\\Psychology\\Documents\\ABExperiment\\MemoryStudy\\resources\\JPG\\hulahoop.jpg,C:\\Users\\Psychology\\Documents\\ABExperiment\\MemoryStudy\\resources\\JPG\\,0,64,64,64,,,,,,,30.63395550000132,None,1,0.20762589998776093,30.63395550000132,None,30.63395550000132,None,test,001,2022-06-22_09h36.04.130,MemoryStudy,2022.1.4,59.9356890044229,
Mem,1,ladybug03.jpg,P,P,JPG\,ladybug03,C:\\Users\\Psychology\\Documents\\ABExperiment\\MemoryStudy\\resources\\JPG\\ladybug03.jpg,C:\\Users\\Psychology\\Documents\\ABExperiment\\MemoryStudy\\resources\\JPG\\,0,65,65,65,,,,,,,30.86961729999166,None,1,0.20317439999780618,30.86961729999166,None,30.86961729999166,None,test,001,2022-06-22_09h36.04.130,MemoryStudy,2022.1.4,59.9356890044229,
Mem,1,magneticcompass.jpg,P,P,JPG\,magneticcompass,C:\\Users\\Psychology\\Documents\\ABExperiment\\MemoryStudy\\resources\\JPG\\magneticcompass.jpg,C:\\Users\\Psychology\\Documents\\ABExperiment\\MemoryStudy\\resources\\JPG\\,0,66,66,66,,,,,,,31.103246099984972,None,1,0.19356059998972341,31.103246099984972,None,31.103246099984972,None,test,001,2022-06-22_09h36.04.130,MemoryStudy,2022.1.4,59.9356890044229,
Mem,1,moose.jpg,P,P,JPG\,moose,C:\\Users\\Psychology\\Documents\\ABExperiment\\MemoryStudy\\resources\\JPG\\moose.jpg,C:\\Users\\Psychology\\Documents\\ABExperiment\\MemoryStudy\\resources\\JPG\\,0,67,67,67,,,,,,,31.320123299985426,None,1,0.20956829999340698,31.320123299985426,None,31.320123299985426,None,test,001,2022-06-22_09h36.04.130,MemoryStudy,2022.1.4,59.9356890044229,
Mem,1,peacock.jpg,P,P,JPG\,peacock,C:\\Users\\Psychology\\Documents\\ABExperiment\\MemoryStudy\\resources\\JPG\\peacock.jpg,C:\\Users\\Psychology\\Documents\\ABExperiment\\MemoryStudy\\resources\\JPG\\,0,68,68,68,,,,,,,31.553682099998696,None,1,0.1988462999870535,31.553682099998696,None,31.553682099998696,None,test,001,2022-06-22_09h36.04.130,MemoryStudy,2022.1.4,59.9356890044229,
Mem,1,rooster.jpg,P,P,JPG\,rooster,C:\\Users\\Psychology\\Documents\\ABExperiment\\MemoryStudy\\resources\\JPG\\rooster.jpg,C:\\Users\\Psychology\\Documents\\ABExperiment\\MemoryStudy\\resources\\JPG\\,0,69,69,69,,,,,,,31.786568899988197,None,1,0.19024220001301728,31.786568899988197,None,31.786568899988197,None,test,001,2022-06-22_09h36.04.130,MemoryStudy,2022.1.4,59.9356890044229,
Mem,1,sandcastle.jpg,P,P,JPG\,sandcastle,C:\\Users\\Psychology\\Documents\\ABExperiment\\MemoryStudy\\resources\\JPG\\sandcastle.jpg,C:\\Users\\Psychology\\Documents\\ABExperiment\\MemoryStudy\\resources\\JPG\\,0,70,70,70,,,,,,,32.00410789999296,None,1,0.1889604999742005,32.00410789999296,None,32.00410789999296,None,test,001,2022-06-22_09h36.04.130,MemoryStudy,2022.1.4,59.9356890044229,
Mem,1,sheep.jpg,P,P,JPG\,sheep,C:\\Users\\Psychology\\Documents\\ABExperiment\\MemoryStudy\\resources\\JPG\\sheep.jpg,C:\\Users\\Psychology\\Documents\\ABExperiment\\MemoryStudy\\resources\\JPG\\,0,71,71,71,,,,,,,32.22107379999943,None,1,0.20387910000863485,32.22107379999943,None,32.22107379999943,None,test,001,2022-06-22_09h36.04.130,MemoryStudy,2022.1.4,59.9356890044229,
Mem,1,spiderweb.jpg,P,P,JPG\,spiderweb,C:\\Users\\Psychology\\Documents\\ABExperiment\\MemoryStudy\\resources\\JPG\\spiderweb.jpg,C:\\Users\\Psychology\\Documents\\ABExperiment\\MemoryStudy\\resources\\JPG\\,0,72,72,72,,,,,,,32.45483709999826,None,1,0.1855191999929957,32.45483709999826,None,32.45483709999826,None,test,001,2022-06-22_09h36.04.130,MemoryStudy,2022.1.4,59.9356890044229,
Mem,1,trampoline.jpg,P,P,JPG\,trampoline,C:\\Users\\Psychology\\Documents\\ABExperiment\\MemoryStudy\\resources\\JPG\\trampoline.jpg,C:\\Users\\Psychology\\Documents\\ABExperiment\\MemoryStudy\\resources\\JPG\\,0,73,73,73,,,,,,,32.671280000009574,None,1,0.20171819999814034,32.671280000009574,None,32.671280000009574,None,test,001,2022-06-22_09h36.04.130,MemoryStudy,2022.1.4,59.9356890044229,
Mem,1,trophy01.jpg,P,P,JPG\,trophy01,C:\\Users\\Psychology\\Documents\\ABExperiment\\MemoryStudy\\resources\\JPG\\trophy01.jpg,C:\\Users\\Psychology\\Documents\\ABExperiment\\MemoryStudy\\resources\\JPG\\,0,74,74,74,,,,,,,32.90500259998953,None,1,0.19242999999551103,32.90500259998953,None,32.90500259998953,None,test,001,2022-06-22_09h36.04.130,MemoryStudy,2022.1.4,59.9356890044229,
Mem,1,windmill.jpg,P,P,JPG\,windmill,C:\\Users\\Psychology\\Documents\\ABExperiment\\MemoryStudy\\resources\\JPG\\windmill.jpg,C:\\Users\\Psychology\\Documents\\ABExperiment\\MemoryStudy\\resources\\JPG\\,0,75,75,75,,,,,,,33.12181499999133,None,1,0.19143170001916587,33.12181499999133,None,33.12181499999133,None,test,001,2022-06-22_09h36.04.130,MemoryStudy,2022.1.4,59.9356890044229,
Mem,1,arrow02.jpg,P,P,JPG\,arrow02,C:\\Users\\Psychology\\Documents\\ABExperiment\\MemoryStudy\\resources\\JPG\\arrow02.jpg,C:\\Users\\Psychology\\Documents\\ABExperiment\\MemoryStudy\\resources\\JPG\\,0,76,76,76,,,,,,,33.33858829998644,None,1,0.1656407999980729,33.33858829998644,None,33.33858829998644,None,test,001,2022-06-22_09h36.04.130,MemoryStudy,2022.1.4,59.9356890044229,
Mem,1,birdhouse.jpg,P,P,JPG\,birdhouse,C:\\Users\\Psychology\\Documents\\ABExperiment\\MemoryStudy\\resources\\JPG\\birdhouse.jpg,C:\\Users\\Psychology\\Documents\\ABExperiment\\MemoryStudy\\resources\\JPG\\,0,77,77,77,,,,,,,33.538448499981314,None,1,0.1909944000071846,33.538448499981314,None,33.538448499981314,None,test,001,2022-06-22_09h36.04.130,MemoryStudy,2022.1.4,59.9356890044229,
Mem,1,bridge.jpg,P,P,JPG\,bridge,C:\\Users\\Psychology\\Documents\\ABExperiment\\MemoryStudy\\resources\\JPG\\bridge.jpg,C:\\Users\\Psychology\\Documents\\ABExperiment\\MemoryStudy\\resources\\JPG\\,0,78,78,78,,,,,,,33.760157499986235,None,1,0.1843040999956429,33.760157499986235,None,33.760157499986235,None,test,001,2022-06-22_09h36.04.130,MemoryStudy,2022.1.4,59.9356890044229,
Mem,1,cashregister01.jpg,P,P,JPG\,cashregister01,C:\\Users\\Psychology\\Documents\\ABExperiment\\MemoryStudy\\resources\\JPG\\cashregister01.jpg,C:\\Users\\Psychology\\Documents\\ABExperiment\\MemoryStudy\\resources\\JPG\\,0,79,79,79,,,,,,,33.97040839999681,None,1,0.18297139997594059,33.97040839999681,None,33.97040839999681,None,test,001,2022-06-22_09h36.04.130,MemoryStudy,2022.1.4,59.9356890044229,
Mem,1,dartboard.jpg,P,P,JPG\,dartboard,C:\\Users\\Psychology\\Documents\\ABExperiment\\MemoryStudy\\resources\\JPG\\dartboard.jpg,C:\\Users\\Psychology\\Documents\\ABExperiment\\MemoryStudy\\resources\\JPG\\,0,80,80,80,,,,,,,34.17067880000104,None,1,0.1899318000068888,34.17067880000104,None,34.17067880000104,None,test,001,2022-06-22_09h36.04.130,MemoryStudy,2022.1.4,59.9356890044229,
Mem,1,dreamcatcher.jpg,P,P,JPG\,dreamcatcher,C:\\Users\\Psychology\\Documents\\ABExperiment\\MemoryStudy\\resources\\JPG\\dreamcatcher.jpg,C:\\Users\\Psychology\\Documents\\ABExperiment\\MemoryStudy\\resources\\JPG\\,0,81,81,81,,,,,,,34.387442799983546,None,1,0.18132249999325722,34.387442799983546,None,34.387442799983546,None,test,001,2022-06-22_09h36.04.130,MemoryStudy,2022.1.4,59.9356890044229,
Mem,1,escalator.jpg,P,P,JPG\,escalator,C:\\Users\\Psychology\\Documents\\ABExperiment\\MemoryStudy\\resources\\JPG\\escalator.jpg,C:\\Users\\Psychology\\Documents\\ABExperiment\\MemoryStudy\\resources\\JPG\\,0,82,82,82,,,,,,,34.58770699999877,None,1,0.1732827000087127,34.58770699999877,None,34.58770699999877,None,test,001,2022-06-22_09h36.04.130,MemoryStudy,2022.1.4,59.9356890044229,
Mem,1,firehydrant.jpg,P,P,JPG\,firehydrant,C:\\Users\\Psychology\\Documents\\ABExperiment\\MemoryStudy\\resources\\JPG\\firehydrant.jpg,C:\\Users\\Psychology\\Documents\\ABExperiment\\MemoryStudy\\resources\\JPG\\,0,83,83,83,,,,,,,34.78789209999377,None,1,0.1812252000090666,34.78789209999377,None,34.78789209999377,None,test,001,2022-06-22_09h36.04.130,MemoryStudy,2022.1.4,59.9356890044229,
Mem,1,greatwhiteshark.jpg,P,P,JPG\,greatwhiteshark,C:\\Users\\Psychology\\Documents\\ABExperiment\\MemoryStudy\\resources\\JPG\\greatwhiteshark.jpg,C:\\Users\\Psychology\\Documents\\ABExperiment\\MemoryStudy\\resources\\JPG\\,0,84,84,84,,,,,,,34.987929599999916,None,1,0.20528570000897162,34.987929599999916,None,34.987929599999916,None,test,001,2022-06-22_09h36.04.130,MemoryStudy,2022.1.4,59.9356890044229,
Mem,1,helicopter.jpg,P,P,JPG\,helicopter,C:\\Users\\Psychology\\Documents\\ABExperiment\\MemoryStudy\\resources\\JPG\\helicopter.jpg,C:\\Users\\Psychology\\Documents\\ABExperiment\\MemoryStudy\\resources\\JPG\\,0,85,85,85,,,,,,,35.22164010000415,None,1,0.1718332000018563,35.22164010000415,None,35.22164010000415,None,test,001,2022-06-22_09h36.04.130,MemoryStudy,2022.1.4,59.9356890044229,
Mem,1,smokingsign.jpg,P,P,JPG\,smokingsign,C:\\Users\\Psychology\\Documents\\ABExperiment\\MemoryStudy\\resources\\JPG\\smokingsign.jpg,C:\\Users\\Psychology\\Documents\\ABExperiment\\MemoryStudy\\resources\\JPG\\,0,86,86,86,,,,,,,35.422091199987335,None,1,0.16259600000921637,35.422091199987335,None,35.422091199987335,None,test,001,2022-06-22_09h36.04.130,MemoryStudy,2022.1.4,59.9356890044229,
Mem,1,barnowl.jpg,P,P,JPG\,barnowl,C:\\Users\\Psychology\\Documents\\ABExperiment\\MemoryStudy\\resources\\JPG\\barnowl.jpg,C:\\Users\\Psychology\\Documents\\ABExperiment\\MemoryStudy\\resources\\JPG\\,0,87,87,87,,,,,,,35.681696699990425,None,1,0.09498349999194033,35.681696699990425,None,35.681696699990425,None,test,001,2022-06-22_09h36.04.130,MemoryStudy,2022.1.4,59.9356890044229,
Mem,1,pig.jpg,P,P,JPG\,pig,C:\\Users\\Psychology\\Documents\\ABExperiment\\MemoryStudy\\resources\\JPG\\pig.jpg,C:\\Users\\Psychology\\Documents\\ABExperiment\\MemoryStudy\\resources\\JPG\\,0,88,88,88,,,,,,,35.80547520000255,None,1,0.18740670001716353,35.80547520000255,None,35.80547520000255,None,test,001,2022-06-22_09h36.04.130,MemoryStudy,2022.1.4,59.9356890044229,
Mem,1,polarbear.jpg,P,P,JPG\,polarbear,C:\\Users\\Psychology\\Documents\\ABExperiment\\MemoryStudy\\resources\\JPG\\polarbear.jpg,C:\\Users\\Psychology\\Documents\\ABExperiment\\MemoryStudy\\resources\\JPG\\,0,89,89,89,,,,,,,36.02244909998262,None,1,0.17852789998869412,36.02244909998262,None,36.02244909998262,None,test,001,2022-06-22_09h36.04.130,MemoryStudy,2022.1.4,59.9356890044229,
Mem,1,sandbarshark.jpg,P,P,JPG\,sandbarshark,C:\\Users\\Psychology\\Documents\\ABExperiment\\MemoryStudy\\resources\\JPG\\sandbarshark.jpg,C:\\Users\\Psychology\\Documents\\ABExperiment\\MemoryStudy\\resources\\JPG\\,0,90,90,90,,,,,,,36.29459139998653,None,1,0.11400139998295344,36.29459139998653,None,36.29459139998653,None,test,001,2022-06-22_09h36.04.130,MemoryStudy,2022.1.4,59.9356890044229,
Mem,1,telescope.jpg,P,P,JPG\,telescope,C:\\Users\\Psychology\\Documents\\ABExperiment\\MemoryStudy\\resources\\JPG\\telescope.jpg,C:\\Users\\Psychology\\Documents\\ABExperiment\\MemoryStudy\\resources\\JPG\\,0,91,91,91,,,,,,,36.44292719999794,None,1,0.1661616000055801,36.44292719999794,None,36.44292719999794,None,test,001,2022-06-22_09h36.04.130,MemoryStudy,2022.1.4,59.9356890044229,
Mem,1,tent.jpg,P,P,JPG\,tent,C:\\Users\\Psychology\\Documents\\ABExperiment\\MemoryStudy\\resources\\JPG\\tent.jpg,C:\\Users\\Psychology\\Documents\\ABExperiment\\MemoryStudy\\resources\\JPG\\,0,92,92,92,,,,,,,36.64357290000771,None,1,0.18944010001723655,36.64357290000771,None,36.64357290000771,None,test,001,2022-06-22_09h36.04.130,MemoryStudy,2022.1.4,59.9356890044229,
Mem,1,toilet.jpg,P,P,JPG\,toilet,C:\\Users\\Psychology\\Documents\\ABExperiment\\MemoryStudy\\resources\\JPG\\toilet.jpg,C:\\Users\\Psychology\\Documents\\ABExperiment\\MemoryStudy\\resources\\JPG\\,0,93,93,93,,,,,,,36.85720989998663,None,1,0.18375639998703264,36.85720989998663,None,36.85720989998663,None,test,001,2022-06-22_09h36.04.130,MemoryStudy,2022.1.4,59.9356890044229,
Mem,1,tricycle.jpg,P,P,JPG\,tricycle,C:\\Users\\Psychology\\Documents\\ABExperiment\\MemoryStudy\\resources\\JPG\\tricycle.jpg,C:\\Users\\Psychology\\Documents\\ABExperiment\\MemoryStudy\\resources\\JPG\\,0,94,94,94,,,,,,,37.07399699999951,None,1,0.19190430000890046,37.07399699999951,None,37.07399699999951,None,test,001,2022-06-22_09h36.04.130,MemoryStudy,2022.1.4,59.9356890044229,
Mem,1,rubikcube.jpg,P,P,JPG\,rubikcube,C:\\Users\\Psychology\\Documents\\ABExperiment\\MemoryStudy\\resources\\JPG\\rubikcube.jpg,C:\\Users\\Psychology\\Documents\\ABExperiment\\MemoryStudy\\resources\\JPG\\,0,95,95,95,,,,,,,37.29148329998134,None,1,0.19743149998248555,37.29148329998134,None,37.29148329998134,None,test,001,2022-06-22_09h36.04.130,MemoryStudy,2022.1.4,59.9356890044229,
Mem,1,anchor.jpg,P,P,JPG\,anchor,C:\\Users\\Psychology\\Documents\\ABExperiment\\MemoryStudy\\resources\\JPG\\anchor.jpg,C:\\Users\\Psychology\\Documents\\ABExperiment\\MemoryStudy\\resources\\JPG\\,0,96,96,96,,,,,,,37.507350300002145,None,1,0.2053707999875769,37.507350300002145,None,37.507350300002145,None,test,001,2022-06-22_09h36.04.130,MemoryStudy,2022.1.4,59.9356890044229,
Mem,1,beerbottle.jpg,P,P,JPG\,beerbottle,C:\\Users\\Psychology\\Documents\\ABExperiment\\MemoryStudy\\resources\\JPG\\beerbottle.jpg,C:\\Users\\Psychology\\Documents\\ABExperiment\\MemoryStudy\\resources\\JPG\\,0,97,97,97,,,,,,,37.74361430000863,None,1,0.1853253000008408,37.74361430000863,None,37.74361430000863,None,test,001,2022-06-22_09h36.04.130,MemoryStudy,2022.1.4,59.9356890044229,
Mem,1,bowtie.jpg,P,P,JPG\,bowtie,C:\\Users\\Psychology\\Documents\\ABExperiment\\MemoryStudy\\resources\\JPG\\bowtie.jpg,C:\\Users\\Psychology\\Documents\\ABExperiment\\MemoryStudy\\resources\\JPG\\,0,98,98,98,,,,,,,37.9604854999925,None,1,0.200190500007011,37.9604854999925,None,37.9604854999925,None,test,001,2022-06-22_09h36.04.130,MemoryStudy,2022.1.4,59.9356890044229,
Mem,1,cannon.jpg,P,P,JPG\,cannon,C:\\Users\\Psychology\\Documents\\ABExperiment\\MemoryStudy\\resources\\JPG\\cannon.jpg,C:\\Users\\Psychology\\Documents\\ABExperiment\\MemoryStudy\\resources\\JPG\\,0,99,99,99,,,,,,,38.19382169999881,None,1,0.19083690000115894,38.19382169999881,None,38.19382169999881,None,test,001,2022-06-22_09h36.04.130,MemoryStudy,2022.1.4,59.9356890044229,
Mem,1,cat.jpg,P,P,JPG\,cat,C:\\Users\\Psychology\\Documents\\ABExperiment\\MemoryStudy\\resources\\JPG\\cat.jpg,C:\\Users\\Psychology\\Documents\\ABExperiment\\MemoryStudy\\resources\\JPG\\,0,100,100,100,,,,,,,38.41092580000986,None,1,0.18163910001749173,38.41092580000986,None,38.41092580000986,None,test,001,2022-06-22_09h36.04.130,MemoryStudy,2022.1.4,59.9356890044229,
Mem,1,chair.jpg,P,P,JPG\,chair,C:\\Users\\Psychology\\Documents\\ABExperiment\\MemoryStudy\\resources\\JPG\\chair.jpg,C:\\Users\\Psychology\\Documents\\ABExperiment\\MemoryStudy\\resources\\JPG\\,0,101,101,101,,,,,,,38.62745189998532,None,1,0.17398429999593645,38.62745189998532,None,38.62745189998532,None,test,001,2022-06-22_09h36.04.130,MemoryStudy,2022.1.4,59.9356890044229,
Mem,1,cross01.jpg,P,P,JPG\,cross01,C:\\Users\\Psychology\\Documents\\ABExperiment\\MemoryStudy\\resources\\JPG\\cross01.jpg,C:\\Users\\Psychology\\Documents\\ABExperiment\\MemoryStudy\\resources\\JPG\\,0,102,102,102,,,,,,,38.82797849999042,None,1,0.1964002999884542,38.82797849999042,None,38.82797849999042,None,test,001,2022-06-22_09h36.04.130,MemoryStudy,2022.1.4,59.9356890044229,
Mem,1,englishcucumber.jpg,P,P,JPG\,englishcucumber,C:\\Users\\Psychology\\Documents\\ABExperiment\\MemoryStudy\\resources\\JPG\\englishcucumber.jpg,C:\\Users\\Psychology\\Documents\\ABExperiment\\MemoryStudy\\resources\\JPG\\,0,103,103,103,,,,,,,39.04485989999375,None,1,0.2034675999893807,39.04485989999375,None,39.04485989999375,None,test,001,2022-06-22_09h36.04.130,MemoryStudy,2022.1.4,59.9356890044229,
Mem,1,frisbee.jpg,P,P,JPG\,frisbee,C:\\Users\\Psychology\\Documents\\ABExperiment\\MemoryStudy\\resources\\JPG\\frisbee.jpg,C:\\Users\\Psychology\\Documents\\ABExperiment\\MemoryStudy\\resources\\JPG\\,0,104,104,104,,,,,,,39.278396799985785,None,1,0.20188409998081625,39.278396799985785,None,39.278396799985785,None,test,001,2022-06-22_09h36.04.130,MemoryStudy,2022.1.4,59.9356890044229,
Mem,1,granolabar01.jpg,P,P,JPG\,granolabar01,C:\\Users\\Psychology\\Documents\\ABExperiment\\MemoryStudy\\resources\\JPG\\granolabar01.jpg,C:\\Users\\Psychology\\Documents\\ABExperiment\\MemoryStudy\\resources\\JPG\\,0,105,105,105,,,,,,,39.517155200010166,None,1,0.18002600001636893,39.517155200010166,None,39.517155200010166,None,test,001,2022-06-22_09h36.04.130,MemoryStudy,2022.1.4,59.9356890044229,
Mem,1,jeans01.jpg,P,P,JPG\,jeans01,C:\\Users\\Psychology\\Documents\\ABExperiment\\MemoryStudy\\resources\\JPG\\jeans01.jpg,C:\\Users\\Psychology\\Documents\\ABExperiment\\MemoryStudy\\resources\\JPG\\,0,106,106,106,,,,,,,39.72614969999995,None,1,0.1863395000109449,39.72614969999995,None,39.72614969999995,None,test,001,2022-06-22_09h36.04.130,MemoryStudy,2022.1.4,59.9356890044229,
Mem,1,jeep.jpg,P,P,JPG\,jeep,C:\\Users\\Psychology\\Documents\\ABExperiment\\MemoryStudy\\resources\\JPG\\jeep.jpg,C:\\Users\\Psychology\\Documents\\ABExperiment\\MemoryStudy\\resources\\JPG\\,0,107,107,107,,,,,,,39.943064799997956,None,1,0.18660739998449571,39.943064799997956,None,39.943064799997956,None,test,001,2022-06-22_09h36.04.130,MemoryStudy,2022.1.4,59.9356890044229,
Mem,1,knee.jpg,P,P,JPG\,knee,C:\\Users\\Psychology\\Documents\\ABExperiment\\MemoryStudy\\resources\\JPG\\knee.jpg,C:\\Users\\Psychology\\Documents\\ABExperiment\\MemoryStudy\\resources\\JPG\\,0,108,108,108,,,,,,,40.16282329999376,None,1,0.19757690001279116,40.16282329999376,None,40.16282329999376,None,test,001,2022-06-22_09h36.04.130,MemoryStudy,2022.1.4,59.9356890044229,
Mem,1,lighthouse.jpg,P,P,JPG\,lighthouse,C:\\Users\\Psychology\\Documents\\ABExperiment\\MemoryStudy\\resources\\JPG\\lighthouse.jpg,C:\\Users\\Psychology\\Documents\\ABExperiment\\MemoryStudy\\resources\\JPG\\,0,109,109,109,,,,,,,40.3800254999951,None,1,0.213125799986301,40.3800254999951,None,40.3800254999951,None,test,001,2022-06-22_09h36.04.130,MemoryStudy,2022.1.4,59.9356890044229,
Mem,1,lion.jpg,P,P,JPG\,lion,C:\\Users\\Psychology\\Documents\\ABExperiment\\MemoryStudy\\resources\\JPG\\lion.jpg,C:\\Users\\Psychology\\Documents\\ABExperiment\\MemoryStudy\\resources\\JPG\\,0,110,110,110,,,,,,,40.610875799990026,None,1,0.2064601999882143,40.610875799990026,None,40.610875799990026,None,test,001,2022-06-22_09h36.04.130,MemoryStudy,2022.1.4,59.9356890044229,
Mem,1,microphone01.jpg,P,P,JPG\,microphone01,C:\\Users\\Psychology\\Documents\\ABExperiment\\MemoryStudy\\resources\\JPG\\microphone01.jpg,C:\\Users\\Psychology\\Documents\\ABExperiment\\MemoryStudy\\resources\\JPG\\,0,111,111,111,,,,,,,40.844367299985606,None,1,0.19688510001287796,40.844367299985606,None,40.844367299985606,None,test,001,2022-06-22_09h36.04.130,MemoryStudy,2022.1.4,59.9356890044229,
Mem,1,1nose.jpg,P,P,JPG\,1nose,C:\\Users\\Psychology\\Documents\\ABExperiment\\MemoryStudy\\resources\\JPG\\1nose.jpg,C:\\Users\\Psychology\\Documents\\ABExperiment\\MemoryStudy\\resources\\JPG\\,0,112,112,112,,,,,,,41.061255000007804,None,1,0.2032199999957811,41.061255000007804,None,41.061255000007804,None,test,001,2022-06-22_09h36.04.130,MemoryStudy,2022.1.4,59.9356890044229,
Mem,1,ostrich.jpg,P,P,JPG\,ostrich,C:\\Users\\Psychology\\Documents\\ABExperiment\\MemoryStudy\\resources\\JPG\\ostrich.jpg,C:\\Users\\Psychology\\Documents\\ABExperiment\\MemoryStudy\\resources\\JPG\\,0,113,113,113,,,,,,,41.30037129999255,None,1,0.18893909998587333,41.30037129999255,None,41.30037129999255,None,test,001,2022-06-22_09h36.04.130,MemoryStudy,2022.1.4,59.9356890044229,
Mem,1,porcupine.jpg,P,P,JPG\,porcupine,C:\\Users\\Psychology\\Documents\\ABExperiment\\MemoryStudy\\resources\\JPG\\porcupine.jpg,C:\\Users\\Psychology\\Documents\\ABExperiment\\MemoryStudy\\resources\\JPG\\,0,114,114,114,,,,,,,41.51364509999985,None,1,0.21485540000139736,41.51364509999985,None,41.51364509999985,None,test,001,2022-06-22_09h36.04.130,MemoryStudy,2022.1.4,59.9356890044229,
Mem,1,redfox.jpg,P,P,JPG\,redfox,C:\\Users\\Psychology\\Documents\\ABExperiment\\MemoryStudy\\resources\\JPG\\redfox.jpg,C:\\Users\\Psychology\\Documents\\ABExperiment\\MemoryStudy\\resources\\JPG\\,0,115,115,115,,,,,,,41.76331179999397,None,1,0.1889509999891743,41.76331179999397,None,41.76331179999397,None,test,001,2022-06-22_09h36.04.130,MemoryStudy,2022.1.4,59.9356890044229,
Mem,1,seal.jpg,P,P,JPG\,seal,C:\\Users\\Psychology\\Documents\\ABExperiment\\MemoryStudy\\resources\\JPG\\seal.jpg,C:\\Users\\Psychology\\Documents\\ABExperiment\\MemoryStudy\\resources\\JPG\\,0,116,116,116,,,,,,,41.9804834999959,None,1,0.1806808999972418,41.9804834999959,None,41.9804834999959,None,test,001,2022-06-22_09h36.04.130,MemoryStudy,2022.1.4,59.9356890044229,
Mem,1,stool01.jpg,P,P,JPG\,stool01,C:\\Users\\Psychology\\Documents\\ABExperiment\\MemoryStudy\\resources\\JPG\\stool01.jpg,C:\\Users\\Psychology\\Documents\\ABExperiment\\MemoryStudy\\resources\\JPG\\,0,117,117,117,,,,,,,42.18087849998847,None,1,0.21209020001697354,42.18087849998847,None,42.18087849998847,None,test,001,2022-06-22_09h36.04.130,MemoryStudy,2022.1.4,59.9356890044229,
Mem,1,toolbox02.jpg,P,P,JPG\,toolbox02,C:\\Users\\Psychology\\Documents\\ABExperiment\\MemoryStudy\\resources\\JPG\\toolbox02.jpg,C:\\Users\\Psychology\\Documents\\ABExperiment\\MemoryStudy\\resources\\JPG\\,0,118,118,118,,,,,,,42.41458449998754,None,1,0.1936295000195969,42.41458449998754,None,42.41458449998754,None,test,001,2022-06-22_09h36.04.130,MemoryStudy,2022.1.4,59.9356890044229,
Mem,1,treadmill.jpg,P,P,JPG\,treadmill,C:\\Users\\Psychology\\Documents\\ABExperiment\\MemoryStudy\\resources\\JPG\\treadmill.jpg,C:\\Users\\Psychology\\Documents\\ABExperiment\\MemoryStudy\\resources\\JPG\\,0,119,119,119,,,,,,,42.631312099983916,None,1,0.21688829999766313,42.631312099983916,None,42.631312099983916,None,test,001,2022-06-22_09h36.04.130,MemoryStudy,2022.1.4,59.9356890044229,
Mem,1,uprightpiano01.jpg,P,P,JPG\,uprightpiano01,C:\\Users\\Psychology\\Documents\\ABExperiment\\MemoryStudy\\resources\\JPG\\uprightpiano01.jpg,C:\\Users\\Psychology\\Documents\\ABExperiment\\MemoryStudy\\resources\\JPG\\,0,120,120,120,,,,,,,42.881203600001754,None,1,0.19212249998236075,42.881203600001754,None,42.881203600001754,None,test,001,2022-06-22_09h36.04.130,MemoryStudy,2022.1.4,59.9356890044229,
Mem,1,wallclock.jpg,P,P,JPG\,wallclock,C:\\Users\\Psychology\\Documents\\ABExperiment\\MemoryStudy\\resources\\JPG\\wallclock.jpg,C:\\Users\\Psychology\\Documents\\ABExperiment\\MemoryStudy\\resources\\JPG\\,0,121,121,121,,,,,,,43.09841390000656,None,1,0.19891450001159683,43.09841390000656,None,43.09841390000656,None,test,001,2022-06-22_09h36.04.130,MemoryStudy,2022.1.4,59.9356890044229,
Mem,1,horseshoe.jpg,P,P,JPG\,horseshoe,C:\\Users\\Psychology\\Documents\\ABExperiment\\MemoryStudy\\resources\\JPG\\horseshoe.jpg,C:\\Users\\Psychology\\Documents\\ABExperiment\\MemoryStudy\\resources\\JPG\\,0,122,122,122,,,,,,,43.33133240000461,None,1,0.18891979998443276,43.33133240000461,None,43.33133240000461,None,test,001,2022-06-22_09h36.04.130,MemoryStudy,2022.1.4,59.9356890044229,
Mem,1,ant.jpg,P,P,JPG\,ant,C:\\Users\\Psychology\\Documents\\ABExperiment\\MemoryStudy\\resources\\JPG\\ant.jpg,C:\\Users\\Psychology\\Documents\\ABExperiment\\MemoryStudy\\resources\\JPG\\,0,123,123,123,,,,,,,43.54861019999953,None,1,0.1887834999943152,43.54861019999953,None,43.54861019999953,None,test,001,2022-06-22_09h36.04.130,MemoryStudy,2022.1.4,59.9356890044229,
Mem,1,barrel01.jpg,P,P,JPG\,barrel01,C:\\Users\\Psychology\\Documents\\ABExperiment\\MemoryStudy\\resources\\JPG\\barrel01.jpg,C:\\Users\\Psychology\\Documents\\ABExperiment\\MemoryStudy\\resources\\JPG\\,0,124,124,124,,,,,,,43.765670599997975,None,1,0.19476770001347177,43.765670599997975,None,43.765670599997975,None,test,001,2022-06-22_09h36.04.130,MemoryStudy,2022.1.4,59.9356890044229,
Mem,1,bull.jpg,P,P,JPG\,bull,C:\\Users\\Psychology\\Documents\\ABExperiment\\MemoryStudy\\resources\\JPG\\bull.jpg,C:\\Users\\Psychology\\Documents\\ABExperiment\\MemoryStudy\\resources\\JPG\\,0,125,125,125,,,,,,,43.982336399989435,None,1,0.20215019999886863,43.982336399989435,None,43.982336399989435,None,test,001,2022-06-22_09h36.04.130,MemoryStudy,2022.1.4,59.9356890044229,
Mem,1,calendar.jpg,P,P,JPG\,calendar,C:\\Users\\Psychology\\Documents\\ABExperiment\\MemoryStudy\\resources\\JPG\\calendar.jpg,C:\\Users\\Psychology\\Documents\\ABExperiment\\MemoryStudy\\resources\\JPG\\,0,126,126,126,,,,,,,44.21605049999198,None,1,0.19255929999053478,44.21605049999198,None,44.21605049999198,None,test,001,2022-06-22_09h36.04.130,MemoryStudy,2022.1.4,59.9356890044229,
Mem,1,chimney.jpg,P,P,JPG\,chimney,C:\\Users\\Psychology\\Documents\\ABExperiment\\MemoryStudy\\resources\\JPG\\chimney.jpg,C:\\Users\\Psychology\\Documents\\ABExperiment\\MemoryStudy\\resources\\JPG\\,0,127,127,127,,,,,,,44.4331891000038,None,1,0.18341239998699166,44.4331891000038,None,44.4331891000038,None,test,001,2022-06-22_09h36.04.130,MemoryStudy,2022.1.4,59.9356890044229,
Mem,1,christmastree.jpg,P,P,JPG\,christmastree,C:\\Users\\Psychology\\Documents\\ABExperiment\\MemoryStudy\\resources\\JPG\\christmastree.jpg,C:\\Users\\Psychology\\Documents\\ABExperiment\\MemoryStudy\\resources\\JPG\\,0,128,128,128,,,,,,,44.64970889998949,None,1,0.19904560002032667,44.64970889998949,None,44.64970889998949,None,test,001,2022-06-22_09h36.04.130,MemoryStudy,2022.1.4,59.9356890044229,
Mem,1,crown.jpg,P,P,JPG\,crown,C:\\Users\\Psychology\\Documents\\ABExperiment\\MemoryStudy\\resources\\JPG\\crown.jpg,C:\\Users\\Psychology\\Documents\\ABExperiment\\MemoryStudy\\resources\\JPG\\,0,129,129,129,,,,,,,44.88318800000707,None,1,0.18244639999466017,44.88318800000707,None,44.88318800000707,None,test,001,2022-06-22_09h36.04.130,MemoryStudy,2022.1.4,59.9356890044229,
Mem,1,curtain.jpg,P,P,JPG\,curtain,C:\\Users\\Psychology\\Documents\\ABExperiment\\MemoryStudy\\resources\\JPG\\curtain.jpg,C:\\Users\\Psychology\\Documents\\ABExperiment\\MemoryStudy\\resources\\JPG\\,0,130,130,130,,,,,,,45.10013079998316,None,1,0.1967434999824036,45.10013079998316,None,45.10013079998316,None,test,001,2022-06-22_09h36.04.130,MemoryStudy,2022.1.4,59.9356890044229,
Mem,1,daddylonglegs.jpg,P,P,JPG\,daddylonglegs,C:\\Users\\Psychology\\Documents\\ABExperiment\\MemoryStudy\\resources\\JPG\\daddylonglegs.jpg,C:\\Users\\Psychology\\Documents\\ABExperiment\\MemoryStudy\\resources\\JPG\\,0,131,131,131,,,,,,,45.317443699983414,None,1,0.1952459999884013,45.317443699983414,None,45.317443699983414,None,test,001,2022-06-22_09h36.04.130,MemoryStudy,2022.1.4,59.9356890044229,
Mem,5,elbow.jpg,P,P,JPG\,elbow,C:\\Users\\Psychology\\Documents\\ABExperiment\\MemoryStudy\\resources\\JPG\\elbow.jpg,C:\\Users\\Psychology\\Documents\\ABExperiment\\MemoryStudy\\resources\\JPG\\,0,132,132,132,,,,,,,45.535185699991416,None,1,0.20144420000724494,45.535185699991416,None,45.535185699991416,None,test,001,2022-06-22_09h36.04.130,MemoryStudy,2022.1.4,59.9356890044229,
Mem,5,fireplace.jpg,P,P,JPG\,fireplace,C:\\Users\\Psychology\\Documents\\ABExperiment\\MemoryStudy\\resources\\JPG\\fireplace.jpg,C:\\Users\\Psychology\\Documents\\ABExperiment\\MemoryStudy\\resources\\JPG\\,0,133,133,133,,,,,,,45.76815859999624,None,1,0.20939550001639873,45.76815859999624,None,45.76815859999624,None,test,001,2022-06-22_09h36.04.130,MemoryStudy,2022.1.4,59.9356890044229,
Mem,5,greywolf.jpg,P,P,JPG\,greywolf,C:\\Users\\Psychology\\Documents\\ABExperiment\\MemoryStudy\\resources\\JPG\\greywolf.jpg,C:\\Users\\Psychology\\Documents\\ABExperiment\\MemoryStudy\\resources\\JPG\\,0,134,134,134,,,,,,,45.99911119998433,None,1,0.20156939997104928,45.99911119998433,None,45.99911119998433,None,test,001,2022-06-22_09h36.04.130,MemoryStudy,2022.1.4,59.9356890044229,
Mem,5,jackrabbit.jpg,P,P,JPG\,jackrabbit,C:\\Users\\Psychology\\Documents\\ABExperiment\\MemoryStudy\\resources\\JPG\\jackrabbit.jpg,C:\\Users\\Psychology\\Documents\\ABExperiment\\MemoryStudy\\resources\\JPG\\,0,135,135,135,,,,,,,46.232645399984904,None,1,0.19199910000315867,46.232645399984904,None,46.232645399984904,None,test,001,2022-06-22_09h36.04.130,MemoryStudy,2022.1.4,59.9356890044229,
Mem,5,jellyfish.jpg,P,P,JPG\,jellyfish,C:\\Users\\Psychology\\Documents\\ABExperiment\\MemoryStudy\\resources\\JPG\\jellyfish.jpg,C:\\Users\\Psychology\\Documents\\ABExperiment\\MemoryStudy\\resources\\JPG\\,0,136,136,136,,,,,,,46.44949020000058,None,1,0.1993097999948077,46.44949020000058,None,46.44949020000058,None,test,001,2022-06-22_09h36.04.130,MemoryStudy,2022.1.4,59.9356890044229,
Mem,5,leafrake.jpg,P,P,JPG\,leafrake,C:\\Users\\Psychology\\Documents\\ABExperiment\\MemoryStudy\\resources\\JPG\\leafrake.jpg,C:\\Users\\Psychology\\Documents\\ABExperiment\\MemoryStudy\\resources\\JPG\\,0,137,137,137,,,,,,,46.66639830000349,None,1,0.21434679999947548,46.66639830000349,None,46.66639830000349,None,test,001,2022-06-22_09h36.04.130,MemoryStudy,2022.1.4,59.9356890044229,
Mem,5,motorcycle.jpg,P,P,JPG\,motorcycle,C:\\Users\\Psychology\\Documents\\ABExperiment\\MemoryStudy\\resources\\JPG\\motorcycle.jpg,C:\\Users\\Psychology\\Documents\\ABExperiment\\MemoryStudy\\resources\\JPG\\,0,138,138,138,,,,,,,46.90011879999656,None,1,0.18874169999617152,46.90011879999656,None,46.90011879999656,None,test,001,2022-06-22_09h36.04.130,MemoryStudy,2022.1.4,59.9356890044229,
Mem,5,mouse.jpg,P,P,JPG\,mouse,C:\\Users\\Psychology\\Documents\\ABExperiment\\MemoryStudy\\resources\\JPG\\mouse.jpg,C:\\Users\\Psychology\\Documents\\ABExperiment\\MemoryStudy\\resources\\JPG\\,0,139,139,139,,,,,,,47.11689249999472,None,1,0.1959985000139568,47.11689249999472,None,47.11689249999472,None,test,001,2022-06-22_09h36.04.130,MemoryStudy,2022.1.4,59.9356890044229,
Mem,5,lip.jpg,P,P,JPG\,lip,C:\\Users\\Psychology\\Documents\\ABExperiment\\MemoryStudy\\resources\\JPG\\lip.jpg,C:\\Users\\Psychology\\Documents\\ABExperiment\\MemoryStudy\\resources\\JPG\\,0,140,140,140,,,,,,,47.33377150000888,None,1,0.2032636999792885,47.33377150000888,None,47.33377150000888,None,test,001,2022-06-22_09h36.04.130,MemoryStudy,2022.1.4,59.9356890044229,
Mem,5,mummy.jpg,P,P,JPG\,mummy,C:\\Users\\Psychology\\Documents\\ABExperiment\\MemoryStudy\\resources\\JPG\\mummy.jpg,C:\\Users\\Psychology\\Documents\\ABExperiment\\MemoryStudy\\resources\\JPG\\,0,141,141,141,,,,,,,47.567267999984324,None,1,0.19300089997705072,47.567267999984324,None,47.567267999984324,None,test,001,2022-06-22_09h36.04.130,MemoryStudy,2022.1.4,59.9356890044229,
Mem,5,saltshaker03a.jpg,P,P,JPG\,saltshaker03a,C:\\Users\\Psychology\\Documents\\ABExperiment\\MemoryStudy\\resources\\JPG\\saltshaker03a.jpg,C:\\Users\\Psychology\\Documents\\ABExperiment\\MemoryStudy\\resources\\JPG\\,0,142,142,142,,,,,,,47.784192999999505,None,1,0.20097909998730756,47.784192999999505,None,47.784192999999505,None,test,001,2022-06-22_09h36.04.130,MemoryStudy,2022.1.4,59.9356890044229,
Mem,5,scorpion.jpg,P,P,JPG\,scorpion,C:\\Users\\Psychology\\Documents\\ABExperiment\\MemoryStudy\\resources\\JPG\\scorpion.jpg,C:\\Users\\Psychology\\Documents\\ABExperiment\\MemoryStudy\\resources\\JPG\\,0,143,143,143,,,,,,,48.01778669998748,None,1,0.19077620000462048,48.01778669998748,None,48.01778669998748,None,test,001,2022-06-22_09h36.04.130,MemoryStudy,2022.1.4,59.9356890044229,
Mem,5,showerhead01.jpg,P,P,JPG\,showerhead01,C:\\Users\\Psychology\\Documents\\ABExperiment\\MemoryStudy\\resources\\JPG\\showerhead01.jpg,C:\\Users\\Psychology\\Documents\\ABExperiment\\MemoryStudy\\resources\\JPG\\,0,144,144,144,,,,,,,48.23465860000579,None,1,0.2056972999998834,48.23465860000579,None,48.23465860000579,None,test,001,2022-06-22_09h36.04.130,MemoryStudy,2022.1.4,59.9356890044229,
Mem,5,floorlamp.jpg,P,P,JPG\,floorlamp,C:\\Users\\Psychology\\Documents\\ABExperiment\\MemoryStudy\\resources\\JPG\\floorlamp.jpg,C:\\Users\\Psychology\\Documents\\ABExperiment\\MemoryStudy\\resources\\JPG\\,0,145,145,145,,,,,,,48.468219500005944,None,1,0.18817330000456423,48.468219500005944,None,48.468219500005944,None,test,001,2022-06-22_09h36.04.130,MemoryStudy,2022.1.4,59.9356890044229,
Mem,5,statue.jpg,P,P,JPG\,statue,C:\\Users\\Psychology\\Documents\\ABExperiment\\MemoryStudy\\resources\\JPG\\statue.jpg,C:\\Users\\Psychology\\Documents\\ABExperiment\\MemoryStudy\\resources\\JPG\\,0,146,146,146,,,,,,,48.68499119998887,None,1,0.18743589997757226,48.68499119998887,None,48.68499119998887,None,test,001,2022-06-22_09h36.04.130,MemoryStudy,2022.1.4,59.9356890044229,
Mem,5,witchhat.jpg,P,P,JPG\,witchhat,C:\\Users\\Psychology\\Documents\\ABExperiment\\MemoryStudy\\resources\\JPG\\witchhat.jpg,C:\\Users\\Psychology\\Documents\\ABExperiment\\MemoryStudy\\resources\\JPG\\,0,147,147,147,,,,,,,48.901991999999154,None,1,0.19543950000661425,48.901991999999154,None,48.901991999999154,None,test,001,2022-06-22_09h36.04.130,MemoryStudy,2022.1.4,59.9356890044229,
Mem,5,cigar.jpg,P,P,JPG\,cigar,C:\\Users\\Psychology\\Documents\\ABExperiment\\MemoryStudy\\resources\\JPG\\cigar.jpg,C:\\Users\\Psychology\\Documents\\ABExperiment\\MemoryStudy\\resources\\JPG\\,0,148,148,148,,,,,,,49.126089900004445,None,1,0.21914210001705214,49.126089900004445,None,49.126089900004445,None,test,001,2022-06-22_09h36.04.130,MemoryStudy,2022.1.4,59.9356890044229,
Mem,5,banjo.jpg,P,P,JPG\,banjo,C:\\Users\\Psychology\\Documents\\ABExperiment\\MemoryStudy\\resources\\JPG\\banjo.jpg,C:\\Users\\Psychology\\Documents\\ABExperiment\\MemoryStudy\\resources\\JPG\\,0,149,149,149,,,,,,,49.37774989998434,None,1,0.17631330000585876,49.37774989998434,None,49.37774989998434,None,test,001,2022-06-22_09h36.04.130,MemoryStudy,2022.1.4,59.9356890044229,
Mem,5,bathtub.jpg,P,P,JPG\,bathtub,C:\\Users\\Psychology\\Documents\\ABExperiment\\MemoryStudy\\resources\\JPG\\bathtub.jpg,C:\\Users\\Psychology\\Documents\\ABExperiment\\MemoryStudy\\resources\\JPG\\,0,150,150,150,,,,,,,49.59275690000504,None,1,0.18444630000158213,49.59275690000504,None,49.59275690000504,None,test,001,2022-06-22_09h36.04.130,MemoryStudy,2022.1.4,59.9356890044229,
Mem,5,bumpercar.jpg,P,P,JPG\,bumpercar,C:\\Users\\Psychology\\Documents\\ABExperiment\\MemoryStudy\\resources\\JPG\\bumpercar.jpg,C:\\Users\\Psychology\\Documents\\ABExperiment\\MemoryStudy\\resources\\JPG\\,0,151,151,151,,,,,,,49.80319299999974,None,1,0.21312959998613223,49.80319299999974,None,49.80319299999974,None,test,001,2022-06-22_09h36.04.130,MemoryStudy,2022.1.4,59.9356890044229,
Mem,5,cruiseship.jpg,P,P,JPG\,cruiseship,C:\\Users\\Psychology\\Documents\\ABExperiment\\MemoryStudy\\resources\\JPG\\cruiseship.jpg,C:\\Users\\Psychology\\Documents\\ABExperiment\\MemoryStudy\\resources\\JPG\\,0,152,152,152,,,,,,,50.037067199999,None,1,0.19512160000158474,50.037067199999,None,50.037067199999,None,test,001,2022-06-22_09h36.04.130,MemoryStudy,2022.1.4,59.9356890044229,
Mem,5,downhillski.jpg,P,P,JPG\,downhillski,C:\\Users\\Psychology\\Documents\\ABExperiment\\MemoryStudy\\resources\\JPG\\downhillski.jpg,C:\\Users\\Psychology\\Documents\\ABExperiment\\MemoryStudy\\resources\\JPG\\,0,153,153,153,,,,,,,50.34595909999916,None,1,0.126422300003469,50.34595909999916,None,50.34595909999916,None,test,001,2022-06-22_09h36.04.130,MemoryStudy,2022.1.4,59.9356890044229,
Mem,5,ear.jpg,P,P,JPG\,ear,C:\\Users\\Psychology\\Documents\\ABExperiment\\MemoryStudy\\resources\\JPG\\ear.jpg,C:\\Users\\Psychology\\Documents\\ABExperiment\\MemoryStudy\\resources\\JPG\\,0,154,154,154,,,,,,,50.50684940000065,None,1,0.21481959999073297,50.50684940000065,None,50.50684940000065,None,test,001,2022-06-22_09h36.04.130,MemoryStudy,2022.1.4,59.9356890044229,
Mem,5,eyepatch.jpg,P,P,JPG\,eyepatch,C:\\Users\\Psychology\\Documents\\ABExperiment\\MemoryStudy\\resources\\JPG\\eyepatch.jpg,C:\\Users\\Psychology\\Documents\\ABExperiment\\MemoryStudy\\resources\\JPG\\,0,155,155,155,,,,,,,50.75617879998754,None,1,0.1805358999990858,50.75617879998754,None,50.75617879998754,None,test,001,2022-06-22_09h36.04.130,MemoryStudy,2022.1.4,59.9356890044229,
Mem,5,funnel.jpg,P,P,JPG\,funnel,C:\\Users\\Psychology\\Documents\\ABExperiment\\MemoryStudy\\resources\\JPG\\funnel.jpg,C:\\Users\\Psychology\\Documents\\ABExperiment\\MemoryStudy\\resources\\JPG\\,0,156,156,156,,,,,,,50.95693049998954,None,1,0.22768379998160526,50.95693049998954,None,50.95693049998954,None,test,001,2022-06-22_09h36.04.130,MemoryStudy,2022.1.4,59.9356890044229,
Mem,5,hockeypuck.jpg,P,P,JPG\,hockeypuck,C:\\Users\\Psychology\\Documents\\ABExperiment\\MemoryStudy\\resources\\JPG\\hockeypuck.jpg,C:\\Users\\Psychology\\Documents\\ABExperiment\\MemoryStudy\\resources\\JPG\\,0,157,157,157,,,,,,,51.206916099996306,None,1,0.20176579998224042,51.206916099996306,None,51.206916099996306,None,test,001,2022-06-22_09h36.04.130,MemoryStudy,2022.1.4,59.9356890044229,
Mem,5,kiwi03.jpg,P,P,JPG\,kiwi03,C:\\Users\\Psychology\\Documents\\ABExperiment\\MemoryStudy\\resources\\JPG\\kiwi03.jpg,C:\\Users\\Psychology\\Documents\\ABExperiment\\MemoryStudy\\resources\\JPG\\,0,158,158,158,,,,,,,51.44062999999733,None,1,0.19983549998141825,51.44062999999733,None,51.44062999999733,None,test,001,2022-06-22_09h36.04.130,MemoryStudy,2022.1.4,59.9356890044229,
Mem,5,lollipop04.jpg,P,P,JPG\,lollipop04,C:\\Users\\Psychology\\Documents\\ABExperiment\\MemoryStudy\\resources\\JPG\\lollipop04.jpg,C:\\Users\\Psychology\\Documents\\ABExperiment\\MemoryStudy\\resources\\JPG\\,0,159,159,159,,,,,,,51.67747739999322,None,1,0.1871716000023298,51.67747739999322,None,51.67747739999322,None,test,001,2022-06-22_09h36.04.130,MemoryStudy,2022.1.4,59.9356890044229,
Mem,5,postalmailbox01.jpg,P,P,JPG\,postalmailbox01,C:\\Users\\Psychology\\Documents\\ABExperiment\\MemoryStudy\\resources\\JPG\\postalmailbox01.jpg,C:\\Users\\Psychology\\Documents\\ABExperiment\\MemoryStudy\\resources\\JPG\\,0,160,160,160,,,,,,,51.967430299991975,None,1,0.12965700001223013,51.967430299991975,None,51.967430299991975,None,test,001,2022-06-22_09h36.04.130,MemoryStudy,2022.1.4,59.9356890044229,
Mem,5,parachute.jpg,P,P,JPG\,parachute,C:\\Users\\Psychology\\Documents\\ABExperiment\\MemoryStudy\\resources\\JPG\\parachute.jpg,C:\\Users\\Psychology\\Documents\\ABExperiment\\MemoryStudy\\resources\\JPG\\,0,161,161,161,,,,,,,52.125780700007454,None,1,0.21845639997627586,52.125780700007454,None,52.125780700007454,None,test,001,2022-06-22_09h36.04.130,MemoryStudy,2022.1.4,59.9356890044229,
Mem,5,rockbass.jpg,P,P,JPG\,rockbass,C:\\Users\\Psychology\\Documents\\ABExperiment\\MemoryStudy\\resources\\JPG\\rockbass.jpg,C:\\Users\\Psychology\\Documents\\ABExperiment\\MemoryStudy\\resources\\JPG\\,0,162,162,162,,,,,,,52.47906650000368,None,1,0.08222509999177419,52.47906650000368,None,52.47906650000368,None,test,001,2022-06-22_09h36.04.130,MemoryStudy,2022.1.4,59.9356890044229,
Mem,5,rollerblade.jpg,P,P,JPG\,rollerblade,C:\\Users\\Psychology\\Documents\\ABExperiment\\MemoryStudy\\resources\\JPG\\rollerblade.jpg,C:\\Users\\Psychology\\Documents\\ABExperiment\\MemoryStudy\\resources\\JPG\\,0,163,163,163,,,,,,,52.5930446999846,None,1,0.2314454999868758,52.5930446999846,None,52.5930446999846,None,test,001,2022-06-22_09h36.04.130,MemoryStudy,2022.1.4,59.9356890044229,
Mem,5,saxophone.jpg,P,P,JPG\,saxophone,C:\\Users\\Psychology\\Documents\\ABExperiment\\MemoryStudy\\resources\\JPG\\saxophone.jpg,C:\\Users\\Psychology\\Documents\\ABExperiment\\MemoryStudy\\resources\\JPG\\,0,164,164,164,,,,,,,52.856230200006394,None,1,0.1925323000177741,52.856230200006394,None,52.856230200006394,None,test,001,2022-06-22_09h36.04.130,MemoryStudy,2022.1.4,59.9356890044229,
Mem,5,scooter.jpg,P,P,JPG\,scooter,C:\\Users\\Psychology\\Documents\\ABExperiment\\MemoryStudy\\resources\\JPG\\scooter.jpg,C:\\Users\\Psychology\\Documents\\ABExperiment\\MemoryStudy\\resources\\JPG\\,0,165,165,165,,,,,,,53.07313289999729,None,1,0.215642499999376,53.07313289999729,None,53.07313289999729,None,test,001,2022-06-22_09h36.04.130,MemoryStudy,2022.1.4,59.9356890044229,
Mem,5,stepladder.jpg,P,P,JPG\,stepladder,C:\\Users\\Psychology\\Documents\\ABExperiment\\MemoryStudy\\resources\\JPG\\stepladder.jpg,C:\\Users\\Psychology\\Documents\\ABExperiment\\MemoryStudy\\resources\\JPG\\,0,166,166,166,,,,,,,53.37953410000773,None,1,0.14907439998933114,53.37953410000773,None,53.37953410000773,None,test,001,2022-06-22_09h36.04.130,MemoryStudy,2022.1.4,59.9356890044229,
Mem,5,licenseplate.jpg,P,P,JPG\,licenseplate,C:\\Users\\Psychology\\Documents\\ABExperiment\\MemoryStudy\\resources\\JPG\\licenseplate.jpg,C:\\Users\\Psychology\\Documents\\ABExperiment\\MemoryStudy\\resources\\JPG\\,0,167,167,167,,,,,,,53.55666820000624,None,1,0.21204419998684898,53.55666820000624,None,53.55666820000624,None,test,001,2022-06-22_09h36.04.130,MemoryStudy,2022.1.4,59.9356890044229,
Mem,5,shower.jpg,P,P,JPG\,shower,C:\\Users\\Psychology\\Documents\\ABExperiment\\MemoryStudy\\resources\\JPG\\shower.jpg,C:\\Users\\Psychology\\Documents\\ABExperiment\\MemoryStudy\\resources\\JPG\\,0,168,168,168,,,,,,,53.79265669998131,None,1,0.19224699996993877,53.79265669998131,None,53.79265669998131,None,test,001,2022-06-22_09h36.04.130,MemoryStudy,2022.1.4,59.9356890044229,
Mem,5,stubbywrench01a.jpg,P,P,JPG\,stubbywrench01a,C:\\Users\\Psychology\\Documents\\ABExperiment\\MemoryStudy\\resources\\JPG\\stubbywrench01a.jpg,C:\\Users\\Psychology\\Documents\\ABExperiment\\MemoryStudy\\resources\\JPG\\,0,169,169,169,,,,,,,54.009075999987544,None,1,0.21571690001292154,54.009075999987544,None,54.009075999987544,None,test,001,2022-06-22_09h36.04.130,MemoryStudy,2022.1.4,59.9356890044229,
Mem,5,baseballbat.jpg,P,P,JPG\,baseballbat,C:\\Users\\Psychology\\Documents\\ABExperiment\\MemoryStudy\\resources\\JPG\\baseballbat.jpg,C:\\Users\\Psychology\\Documents\\ABExperiment\\MemoryStudy\\resources\\JPG\\,0,170,170,170,,,,,,,54.25908950000303,None,1,0.18103009997867048,54.25908950000303,None,54.25908950000303,None,test,001,2022-06-22_09h36.04.130,MemoryStudy,2022.1.4,59.9356890044229,
Mem,5,bed.jpg,P,P,JPG\,bed,C:\\Users\\Psychology\\Documents\\ABExperiment\\MemoryStudy\\resources\\JPG\\bed.jpg,C:\\Users\\Psychology\\Documents\\ABExperiment\\MemoryStudy\\resources\\JPG\\,0,171,171,171,,,,,,,54.459806800005026,None,1,0.21322979999240488,54.459806800005026,None,54.459806800005026,None,test,001,2022-06-22_09h36.04.130,MemoryStudy,2022.1.4,59.9356890044229,
Mem,5,foldingchair.jpg,P,P,JPG\,foldingchair,C:\\Users\\Psychology\\Documents\\ABExperiment\\MemoryStudy\\resources\\JPG\\foldingchair.jpg,C:\\Users\\Psychology\\Documents\\ABExperiment\\MemoryStudy\\resources\\JPG\\,0,172,172,172,,,,,,,54.69325569999637,None,1,0.20289499999489635,54.69325569999637,None,54.69325569999637,None,test,001,2022-06-22_09h36.04.130,MemoryStudy,2022.1.4,59.9356890044229,
Mem,5,butterfly.jpg,P,P,JPG\,butterfly,C:\\Users\\Psychology\\Documents\\ABExperiment\\MemoryStudy\\resources\\JPG\\butterfly.jpg,C:\\Users\\Psychology\\Documents\\ABExperiment\\MemoryStudy\\resources\\JPG\\,0,173,173,173,,,,,,,54.92689629999222,None,1,0.20949540002038702,54.92689629999222,None,54.92689629999222,None,test,001,2022-06-22_09h36.04.130,MemoryStudy,2022.1.4,59.9356890044229,
Mem,5,car.jpg,P,P,JPG\,car,C:\\Users\\Psychology\\Documents\\ABExperiment\\MemoryStudy\\resources\\JPG\\car.jpg,C:\\Users\\Psychology\\Documents\\ABExperiment\\MemoryStudy\\resources\\JPG\\,0,174,174,174,,,,,,,55.16055860000779,None,1,0.1930249000142794,55.16055860000779,None,55.16055860000779,None,test,001,2022-06-22_09h36.04.130,MemoryStudy,2022.1.4,59.9356890044229,
Mem,5,chefshat.jpg,P,P,JPG\,chefshat,C:\\Users\\Psychology\\Documents\\ABExperiment\\MemoryStudy\\resources\\JPG\\chefshat.jpg,C:\\Users\\Psychology\\Documents\\ABExperiment\\MemoryStudy\\resources\\JPG\\,0,175,175,175,,,,,,,55.377171300002374,None,1,0.20746810000855476,55.377171300002374,None,55.377171300002374,None,test,001,2022-06-22_09h36.04.130,MemoryStudy,2022.1.4,59.9356890044229,
Mem,5,church.jpg,P,P,JPG\,church,C:\\Users\\Psychology\\Documents\\ABExperiment\\MemoryStudy\\resources\\JPG\\church.jpg,C:\\Users\\Psychology\\Documents\\ABExperiment\\MemoryStudy\\resources\\JPG\\,0,176,176,176,,,,,,,55.61093989998335,None,1,0.2058600999880582,55.61093989998335,None,55.61093989998335,None,test,001,2022-06-22_09h36.04.130,MemoryStudy,2022.1.4,59.9356890044229,
Mem,5,duck01.jpg,P,P,JPG\,duck01,C:\\Users\\Psychology\\Documents\\ABExperiment\\MemoryStudy\\resources\\JPG\\duck01.jpg,C:\\Users\\Psychology\\Documents\\ABExperiment\\MemoryStudy\\resources\\JPG\\,0,177,177,177,,,,,,,55.844352999993134,None,1,0.20430459998897277,55.844352999993134,None,55.844352999993134,None,test,001,2022-06-22_09h36.04.130,MemoryStudy,2022.1.4,59.9356890044229,
Mem,5,hand01b.jpg,P,P,JPG\,hand01b,C:\\Users\\Psychology\\Documents\\ABExperiment\\MemoryStudy\\resources\\JPG\\hand01b.jpg,C:\\Users\\Psychology\\Documents\\ABExperiment\\MemoryStudy\\resources\\JPG\\,0,178,178,178,,,,,,,56.07803179998882,None,1,0.2025701999955345,56.07803179998882,None,56.07803179998882,None,test,001,2022-06-22_09h36.04.130,MemoryStudy,2022.1.4,59.9356890044229,
Mem,5,hibiscusflower02.jpg,P,P,JPG\,hibiscusflower02,C:\\Users\\Psychology\\Documents\\ABExperiment\\MemoryStudy\\resources\\JPG\\hibiscusflower02.jpg,C:\\Users\\Psychology\\Documents\\ABExperiment\\MemoryStudy\\resources\\JPG\\,0,179,179,179,,,,,,,56.41486339998664,None,1,0.09796839999035001,56.41486339998664,None,56.41486339998664,None,test,001,2022-06-22_09h36.04.130,MemoryStudy,2022.1.4,59.9356890044229,
Mem,5,holdfast.jpg,P,P,JPG\,holdfast,C:\\Users\\Psychology\\Documents\\ABExperiment\\MemoryStudy\\resources\\JPG\\holdfast.jpg,C:\\Users\\Psychology\\Documents\\ABExperiment\\MemoryStudy\\resources\\JPG\\,0,180,180,180,,,,,,,56.54292939999141,None,1,0.2095227999961935,56.54292939999141,None,56.54292939999141,None,test,001,2022-06-22_09h36.04.130,MemoryStudy,2022.1.4,59.9356890044229,
Mem,5,lily.jpg,P,P,JPG\,lily,C:\\Users\\Psychology\\Documents\\ABExperiment\\MemoryStudy\\resources\\JPG\\lily.jpg,C:\\Users\\Psychology\\Documents\\ABExperiment\\MemoryStudy\\resources\\JPG\\,0,181,181,181,,,,,,,56.77870639998582,None,1,0.18968389998190105,56.77870639998582,None,56.77870639998582,None,test,001,2022-06-22_09h36.04.130,MemoryStudy,2022.1.4,59.9356890044229,
Mem,5,makiroll.jpg,P,P,JPG\,makiroll,C:\\Users\\Psychology\\Documents\\ABExperiment\\MemoryStudy\\resources\\JPG\\makiroll.jpg,C:\\Users\\Psychology\\Documents\\ABExperiment\\MemoryStudy\\resources\\JPG\\,0,182,182,182,,,,,,,56.99581210000906,None,1,0.22067700000479817,56.99581210000906,None,56.99581210000906,None,test,001,2022-06-22_09h36.04.130,MemoryStudy,2022.1.4,59.9356890044229,
Mem,5,microwave.jpg,P,P,JPG\,microwave,C:\\Users\\Psychology\\Documents\\ABExperiment\\MemoryStudy\\resources\\JPG\\microwave.jpg,C:\\Users\\Psychology\\Documents\\ABExperiment\\MemoryStudy\\resources\\JPG\\,0,183,183,183,,,,,,,57.245911999983946,None,1,0.19463399998494424,57.245911999983946,None,57.245911999983946,None,test,001,2022-06-22_09h36.04.130,MemoryStudy,2022.1.4,59.9356890044229,
Mem,5,penguin.jpg,P,P,JPG\,penguin,C:\\Users\\Psychology\\Documents\\ABExperiment\\MemoryStudy\\resources\\JPG\\penguin.jpg,C:\\Users\\Psychology\\Documents\\ABExperiment\\MemoryStudy\\resources\\JPG\\,0,184,184,184,,,,,,,57.46288239999558,None,1,0.20153610000852495,57.46288239999558,None,57.46288239999558,None,test,001,2022-06-22_09h36.04.130,MemoryStudy,2022.1.4,59.9356890044229,
Mem,5,smokingpipe.jpg,P,P,JPG\,smokingpipe,C:\\Users\\Psychology\\Documents\\ABExperiment\\MemoryStudy\\resources\\JPG\\smokingpipe.jpg,C:\\Users\\Psychology\\Documents\\ABExperiment\\MemoryStudy\\resources\\JPG\\,0,185,185,185,,,,,,,57.696199300000444,None,1,0.17624450000585057,57.696199300000444,None,57.696199300000444,None,test,001,2022-06-22_09h36.04.130,MemoryStudy,2022.1.4,59.9356890044229,
Mem,5,shovel01.jpg,P,P,JPG\,shovel01,C:\\Users\\Psychology\\Documents\\ABExperiment\\MemoryStudy\\resources\\JPG\\shovel01.jpg,C:\\Users\\Psychology\\Documents\\ABExperiment\\MemoryStudy\\resources\\JPG\\,0,186,186,186,,,,,,,57.90610249998281,None,1,0.19965639998554252,57.90610249998281,None,57.90610249998281,None,test,001,2022-06-22_09h36.04.130,MemoryStudy,2022.1.4,59.9356890044229,
Mem,5,spicerack.jpg,P,P,JPG\,spicerack,C:\\Users\\Psychology\\Documents\\ABExperiment\\MemoryStudy\\resources\\JPG\\spicerack.jpg,C:\\Users\\Psychology\\Documents\\ABExperiment\\MemoryStudy\\resources\\JPG\\,0,187,187,187,,,,,,,58.13115219998872,None,1,0.2055955000105314,58.13115219998872,None,58.13115219998872,None,test,001,2022-06-22_09h36.04.130,MemoryStudy,2022.1.4,59.9356890044229,
Mem,5,athleticsock.jpg,P,P,JPG\,athleticsock,C:\\Users\\Psychology\\Documents\\ABExperiment\\MemoryStudy\\resources\\JPG\\athleticsock.jpg,C:\\Users\\Psychology\\Documents\\ABExperiment\\MemoryStudy\\resources\\JPG\\,0,188,188,188,,,,,,,58.364312099991366,None,1,0.20459109998773783,58.364312099991366,None,58.364312099991366,None,test,001,2022-06-22_09h36.04.130,MemoryStudy,2022.1.4,59.9356890044229,
Mem,5,surfboard.jpg,P,P,JPG\,surfboard,C:\\Users\\Psychology\\Documents\\ABExperiment\\MemoryStudy\\resources\\JPG\\surfboard.jpg,C:\\Users\\Psychology\\Documents\\ABExperiment\\MemoryStudy\\resources\\JPG\\,0,189,189,189,,,,,,,58.595000700006494,None,1,0.21391970000695437,58.595000700006494,None,58.595000700006494,None,test,001,2022-06-22_09h36.04.130,MemoryStudy,2022.1.4,59.9356890044229,
Mem,5,sword01.jpg,P,P,JPG\,sword01,C:\\Users\\Psychology\\Documents\\ABExperiment\\MemoryStudy\\resources\\JPG\\sword01.jpg,C:\\Users\\Psychology\\Documents\\ABExperiment\\MemoryStudy\\resources\\JPG\\,0,190,190,190,,,,,,,58.828634500008775,None,1,0.19627909999690019,58.828634500008775,None,58.828634500008775,None,test,001,2022-06-22_09h36.04.130,MemoryStudy,2022.1.4,59.9356890044229,
Mem,5,table01.jpg,P,P,JPG\,table01,C:\\Users\\Psychology\\Documents\\ABExperiment\\MemoryStudy\\resources\\JPG\\table01.jpg,C:\\Users\\Psychology\\Documents\\ABExperiment\\MemoryStudy\\resources\\JPG\\,0,191,191,191,,,,,,,59.045567799999844,None,1,0.17940880000242032,59.045567799999844,None,59.045567799999844,None,test,001,2022-06-22_09h36.04.130,MemoryStudy,2022.1.4,59.9356890044229,
Mem,5,trumpet.jpg,P,P,JPG\,trumpet,C:\\Users\\Psychology\\Documents\\ABExperiment\\MemoryStudy\\resources\\JPG\\trumpet.jpg,C:\\Users\\Psychology\\Documents\\ABExperiment\\MemoryStudy\\resources\\JPG\\,0,192,192,192,,,,,,,59.24581039999612,None,1,0.20229169999947771,59.24581039999612,None,59.24581039999612,None,test,001,2022-06-22_09h36.04.130,MemoryStudy,2022.1.4,59.9356890044229,
Mem,5,marble.jpg,P,P,JPG\,marble,C:\\Users\\Psychology\\Documents\\ABExperiment\\MemoryStudy\\resources\\JPG\\marble.jpg,C:\\Users\\Psychology\\Documents\\ABExperiment\\MemoryStudy\\resources\\JPG\\,0,193,193,193,,,,,,,59.47925089998171,None,1,0.18494839998311363,59.47925089998171,None,59.47925089998171,None,test,001,2022-06-22_09h36.04.130,MemoryStudy,2022.1.4,59.9356890044229,
Mem,5,callbell.jpg,P,P,JPG\,callbell,C:\\Users\\Psychology\\Documents\\ABExperiment\\MemoryStudy\\resources\\JPG\\callbell.jpg,C:\\Users\\Psychology\\Documents\\ABExperiment\\MemoryStudy\\resources\\JPG\\,0,194,194,194,,,,,,,59.696022999996785,None,1,0.20831839999300428,59.696022999996785,None,59.696022999996785,None,test,001,2022-06-22_09h36.04.130,MemoryStudy,2022.1.4,59.9356890044229,
Mem,5,footballhelmet.jpg,P,P,JPG\,footballhelmet,C:\\Users\\Psychology\\Documents\\ABExperiment\\MemoryStudy\\resources\\JPG\\footballhelmet.jpg,C:\\Users\\Psychology\\Documents\\ABExperiment\\MemoryStudy\\resources\\JPG\\,0,195,195,195,,,,,,,59.929662799986545,None,1,0.1995926000236068,59.929662799986545,None,59.929662799986545,None,test,001,2022-06-22_09h36.04.130,MemoryStudy,2022.1.4,59.9356890044229,
Mem,5,honeybee.jpg,P,P,JPG\,honeybee,C:\\Users\\Psychology\\Documents\\ABExperiment\\MemoryStudy\\resources\\JPG\\honeybee.jpg,C:\\Users\\Psychology\\Documents\\ABExperiment\\MemoryStudy\\resources\\JPG\\,0,196,196,196,,,,,,,60.14664600000833,None,1,0.22954669999307953,60.14664600000833,None,60.14664600000833,None,test,001,2022-06-22_09h36.04.130,MemoryStudy,2022.1.4,59.9356890044229,
Mem,5,ipad02.jpg,P,P,JPG\,ipad02,C:\\Users\\Psychology\\Documents\\ABExperiment\\MemoryStudy\\resources\\JPG\\ipad02.jpg,C:\\Users\\Psychology\\Documents\\ABExperiment\\MemoryStudy\\resources\\JPG\\,0,197,197,197,,,,,,,60.396871799981454,None,1,0.20327489997725934,60.396871799981454,None,60.396871799981454,None,test,001,2022-06-22_09h36.04.130,MemoryStudy,2022.1.4,59.9356890044229,
Mem,5,pigeon.jpg,P,P,JPG\,pigeon,C:\\Users\\Psychology\\Documents\\ABExperiment\\MemoryStudy\\resources\\JPG\\pigeon.jpg,C:\\Users\\Psychology\\Documents\\ABExperiment\\MemoryStudy\\resources\\JPG\\,0,198,198,198,,,,,,,60.63043279998237,None,1,0.20191909998538904,60.63043279998237,None,60.63043279998237,None,test,001,2022-06-22_09h36.04.130,MemoryStudy,2022.1.4,59.9356890044229,
Mem,5,pingpongtable.jpg,P,P,JPG\,pingpongtable,C:\\Users\\Psychology\\Documents\\ABExperiment\\MemoryStudy\\resources\\JPG\\pingpongtable.jpg,C:\\Users\\Psychology\\Documents\\ABExperiment\\MemoryStudy\\resources\\JPG\\,0,199,199,199,,,,,,,60.86390689999098,None,1,0.20139810000546277,60.86390689999098,None,60.86390689999098,None,test,001,2022-06-22_09h36.04.130,MemoryStudy,2022.1.4,59.9356890044229,
Mem,5,flamingo.jpg,P,P,JPG\,flamingo,C:\\Users\\Psychology\\Documents\\ABExperiment\\MemoryStudy\\resources\\JPG\\flamingo.jpg,C:\\Users\\Psychology\\Documents\\ABExperiment\\MemoryStudy\\resources\\JPG\\,0,200,200,200,,,,,,,61.09748229998513,None,1,0.1989921000204049,61.09748229998513,None,61.09748229998513,None,test,001,2022-06-22_09h36.04.130,MemoryStudy,2022.1.4,59.9356890044229,
Mem,5,pokerchips.jpg,P,P,JPG\,pokerchips,C:\\Users\\Psychology\\Documents\\ABExperiment\\MemoryStudy\\resources\\JPG\\pokerchips.jpg,C:\\Users\\Psychology\\Documents\\ABExperiment\\MemoryStudy\\resources\\JPG\\,0,201,201,201,,,,,,,61.314415000000736,None,1,0.1903621999954339,61.314415000000736,None,61.314415000000736,None,test,001,2022-06-22_09h36.04.130,MemoryStudy,2022.1.4,59.9356890044229,
Mem,5,popcorn.jpg,P,P,JPG\,popcorn,C:\\Users\\Psychology\\Documents\\ABExperiment\\MemoryStudy\\resources\\JPG\\popcorn.jpg,C:\\Users\\Psychology\\Documents\\ABExperiment\\MemoryStudy\\resources\\JPG\\,0,202,202,202,,,,,,,61.53134570000111,None,1,0.20533190001151524,61.53134570000111,None,61.53134570000111,None,test,001,2022-06-22_09h36.04.130,MemoryStudy,2022.1.4,59.9356890044229,
Mem,5,punchingbag.jpg,P,P,JPG\,punchingbag,C:\\Users\\Psychology\\Documents\\ABExperiment\\MemoryStudy\\resources\\JPG\\punchingbag.jpg,C:\\Users\\Psychology\\Documents\\ABExperiment\\MemoryStudy\\resources\\JPG\\,0,203,203,203,,,,,,,61.764950199984014,None,1,0.1878174999728799,61.764950199984014,None,61.764950199984014,None,test,001,2022-06-22_09h36.04.130,MemoryStudy,2022.1.4,59.9356890044229,
Mem,5,recyclingbin.jpg,P,P,JPG\,recyclingbin,C:\\Users\\Psychology\\Documents\\ABExperiment\\MemoryStudy\\resources\\JPG\\recyclingbin.jpg,C:\\Users\\Psychology\\Documents\\ABExperiment\\MemoryStudy\\resources\\JPG\\,0,204,204,204,,,,,,,61.981702599994605,None,1,0.20231849999981932,61.981702599994605,None,61.981702599994605,None,test,001,2022-06-22_09h36.04.130,MemoryStudy,2022.1.4,59.9356890044229,
Mem,5,rose.jpg,P,P,JPG\,rose,C:\\Users\\Psychology\\Documents\\ABExperiment\\MemoryStudy\\resources\\JPG\\rose.jpg,C:\\Users\\Psychology\\Documents\\ABExperiment\\MemoryStudy\\resources\\JPG\\,0,205,205,205,,,,,,,62.21521669998765,None,1,0.19380840001394972,62.21521669998765,None,62.21521669998765,None,test,001,2022-06-22_09h36.04.130,MemoryStudy,2022.1.4,59.9356890044229,
Mem,5,safe.jpg,P,P,JPG\,safe,C:\\Users\\Psychology\\Documents\\ABExperiment\\MemoryStudy\\resources\\JPG\\safe.jpg,C:\\Users\\Psychology\\Documents\\ABExperiment\\MemoryStudy\\resources\\JPG\\,0,206,206,206,,,,,,,62.432164199999534,None,1,0.21595240000169724,62.432164199999534,None,62.432164199999534,None,test,001,2022-06-22_09h36.04.130,MemoryStudy,2022.1.4,59.9356890044229,
Mem,99,pencil01.jpg,Z,Z,JPG\,pencil01,C:\\Users\\Psychology\\Documents\\ABExperiment\\MemoryStudy\\resources\\JPG\\pencil01.jpg,C:\\Users\\Psychology\\Documents\\ABExperiment\\MemoryStudy\\resources\\JPG\\,0,207,207,207,,,,,,,62.73462609999115,None,1,0.15440050000324845,62.73462609999115,None,62.73462609999115,None,test,001,2022-06-22_09h36.04.130,MemoryStudy,2022.1.4,59.9356890044229,
Mem,99,foosballtable.jpg,Z,Z,JPG\,foosballtable,C:\\Users\\Psychology\\Documents\\ABExperiment\\MemoryStudy\\resources\\JPG\\foosballtable.jpg,C:\\Users\\Psychology\\Documents\\ABExperiment\\MemoryStudy\\resources\\JPG\\,0,208,208,208,,,,,,,62.92045479998342,None,1,0.16856670001288876,62.92045479998342,None,62.92045479998342,None,test,001,2022-06-22_09h36.04.130,MemoryStudy,2022.1.4,59.9356890044229,
Mem,99,banana01.jpg,Z,Z,JPG\,banana01,C:\\Users\\Psychology\\Documents\\ABExperiment\\MemoryStudy\\resources\\JPG\\banana01.jpg,C:\\Users\\Psychology\\Documents\\ABExperiment\\MemoryStudy\\resources\\JPG\\,0,209,209,209,,,,,,,63.20075369998813,None,1,0.10361920000286773,63.20075369998813,None,63.20075369998813,None,test,001,2022-06-22_09h36.04.130,MemoryStudy,2022.1.4,59.9356890044229,
Mem,99,lipstick02a.jpg,Z,Z,JPG\,lipstick02a,C:\\Users\\Psychology\\Documents\\ABExperiment\\MemoryStudy\\resources\\JPG\\lipstick02a.jpg,C:\\Users\\Psychology\\Documents\\ABExperiment\\MemoryStudy\\resources\\JPG\\,0,210,210,210,,,,,,,63.4070967999869,None,1,0.1299157000030391,63.4070967999869,None,63.4070967999869,None,test,001,2022-06-22_09h36.04.130,MemoryStudy,2022.1.4,59.9356890044229,
Mem,99,toaster01.jpg,Z,Z,JPG\,toaster01,C:\\Users\\Psychology\\Documents\\ABExperiment\\MemoryStudy\\resources\\JPG\\toaster01.jpg,C:\\Users\\Psychology\\Documents\\ABExperiment\\MemoryStudy\\resources\\JPG\\,0,211,211,211,,,,,,,63.63630149999517,None,1,0.12545049999607727,63.63630149999517,None,63.63630149999517,None,test,001,2022-06-22_09h36.04.130,MemoryStudy,2022.1.4,59.9356890044229,
Mem,99,grape01.jpg,Z,Z,JPG\,grape01,C:\\Users\\Psychology\\Documents\\ABExperiment\\MemoryStudy\\resources\\JPG\\grape01.jpg,C:\\Users\\Psychology\\Documents\\ABExperiment\\MemoryStudy\\resources\\JPG\\,0,212,212,212,,,,,,,63.86583900000551,None,1,0.11064820000319742,63.86583900000551,None,63.86583900000551,None,test,001,2022-06-22_09h36.04.130,MemoryStudy,2022.1.4,59.9356890044229,
Mem,99,key01.jpg,Z,Z,JPG\,key01,C:\\Users\\Psychology\\Documents\\ABExperiment\\MemoryStudy\\resources\\JPG\\key01.jpg,C:\\Users\\Psychology\\Documents\\ABExperiment\\MemoryStudy\\resources\\JPG\\,0,213,213,213,,,,,,,64.07362009998178,None,1,0.12883180001517758,64.07362009998178,None,64.07362009998178,None,test,001,2022-06-22_09h36.04.130,MemoryStudy,2022.1.4,59.9356890044229,
Mem,99,cellphone.jpg,Z,Z,JPG\,cellphone,C:\\Users\\Psychology\\Documents\\ABExperiment\\MemoryStudy\\resources\\JPG\\cellphone.jpg,C:\\Users\\Psychology\\Documents\\ABExperiment\\MemoryStudy\\resources\\JPG\\,0,214,214,214,,,,,,,64.3240775000013,None,1,0.1020180000050459,64.3240775000013,None,64.3240775000013,None,test,001,2022-06-22_09h36.04.130,MemoryStudy,2022.1.4,59.9356890044229,
Mem,99,screwdriver04b.jpg,Z,Z,JPG\,screwdriver04b,C:\\Users\\Psychology\\Documents\\ABExperiment\\MemoryStudy\\resources\\JPG\\screwdriver04b.jpg,C:\\Users\\Psychology\\Documents\\ABExperiment\\MemoryStudy\\resources\\JPG\\,0,215,215,215,,,,,,,64.53397970000515,None,1,0.13052869998500682,64.53397970000515,None,64.53397970000515,None,test,001,2022-06-22_09h36.04.130,MemoryStudy,2022.1.4,59.9356890044229,
Mem,99,pineapple01a.jpg,Z,Z,JPG\,pineapple01a,C:\\Users\\Psychology\\Documents\\ABExperiment\\MemoryStudy\\resources\\JPG\\pineapple01a.jpg,C:\\Users\\Psychology\\Documents\\ABExperiment\\MemoryStudy\\resources\\JPG\\,0,216,216,216,,,,,,,64.76790169999003,None,1,0.09711809997679666,64.76790169999003,None,64.76790169999003,None,test,001,2022-06-22_09h36.04.130,MemoryStudy,2022.1.4,59.9356890044229,
Mem,99,strawberry.jpg,Z,Z,JPG\,strawberry,C:\\Users\\Psychology\\Documents\\ABExperiment\\MemoryStudy\\resources\\JPG\\strawberry.jpg,C:\\Users\\Psychology\\Documents\\ABExperiment\\MemoryStudy\\resources\\JPG\\,0,217,217,217,,,,,,,64.97135000000708,None,1,0.10887599998386577,64.97135000000708,None,64.97135000000708,None,test,001,2022-06-22_09h36.04.130,MemoryStudy,2022.1.4,59.9356890044229,
Mem,99,teabag.jpg,Z,Z,JPG\,teabag,C:\\Users\\Psychology\\Documents\\ABExperiment\\MemoryStudy\\resources\\JPG\\teabag.jpg,C:\\Users\\Psychology\\Documents\\ABExperiment\\MemoryStudy\\resources\\JPG\\,0,218,218,218,,,,,,,65.19772959998227,None,1,0.10667999999714084,65.19772959998227,None,65.19772959998227,None,test,001,2022-06-22_09h36.04.130,MemoryStudy,2022.1.4,59.9356890044229,
Mem,99,dandelion.jpg,Z,Z,JPG\,dandelion,C:\\Users\\Psychology\\Documents\\ABExperiment\\MemoryStudy\\resources\\JPG\\dandelion.jpg,C:\\Users\\Psychology\\Documents\\ABExperiment\\MemoryStudy\\resources\\JPG\\,0,219,219,219,,,,,,,65.33792729998822,None,1,0.19842709999647923,65.33792729998822,None,65.33792729998822,None,test,001,2022-06-22_09h36.04.130,MemoryStudy,2022.1.4,59.9356890044229,
Mem,99,paintbrush01.jpg,Z,Z,JPG\,paintbrush01,C:\\Users\\Psychology\\Documents\\ABExperiment\\MemoryStudy\\resources\\JPG\\paintbrush01.jpg,C:\\Users\\Psychology\\Documents\\ABExperiment\\MemoryStudy\\resources\\JPG\\,0,220,220,220,,,,,,,65.62600459999521,None,1,0.11890119998133741,65.62600459999521,None,65.62600459999521,None,test,001,2022-06-22_09h36.04.130,MemoryStudy,2022.1.4,59.9356890044229,
Mem,99,celery.jpg,Z,Z,JPG\,celery,C:\\Users\\Psychology\\Documents\\ABExperiment\\MemoryStudy\\resources\\JPG\\celery.jpg,C:\\Users\\Psychology\\Documents\\ABExperiment\\MemoryStudy\\resources\\JPG\\,0,221,221,221,,,,,,,65.85871359999874,None,1,0.10194950000732206,65.85871359999874,None,65.85871359999874,None,test,001,2022-06-22_09h36.04.130,MemoryStudy,2022.1.4,59.9356890044229,
Mem,99,eraser.jpg,Z,Z,JPG\,eraser,C:\\Users\\Psychology\\Documents\\ABExperiment\\MemoryStudy\\resources\\JPG\\eraser.jpg,C:\\Users\\Psychology\\Documents\\ABExperiment\\MemoryStudy\\resources\\JPG\\,0,222,222,222,,,,,,,66.06454369999119,None,1,0.1279025999829173,66.06454369999119,None,66.06454369999119,None,test,001,2022-06-22_09h36.04.130,MemoryStudy,2022.1.4,59.9356890044229,
Mem,99,medal02b.jpg,Z,Z,JPG\,medal02b,C:\\Users\\Psychology\\Documents\\ABExperiment\\MemoryStudy\\resources\\JPG\\medal02b.jpg,C:\\Users\\Psychology\\Documents\\ABExperiment\\MemoryStudy\\resources\\JPG\\,0,223,223,223,,,,,,,66.3041741999914,None,1,0.10488659999100491,66.3041741999914,None,66.3041741999914,None,test,001,2022-06-22_09h36.04.130,MemoryStudy,2022.1.4,59.9356890044229,
Mem,99,hammer01.jpg,Z,Z,JPG\,hammer01,C:\\Users\\Psychology\\Documents\\ABExperiment\\MemoryStudy\\resources\\JPG\\hammer01.jpg,C:\\Users\\Psychology\\Documents\\ABExperiment\\MemoryStudy\\resources\\JPG\\,0,224,224,224,,,,,,,66.53170449999743,None,1,0.10160110000288114,66.53170449999743,None,66.53170449999743,None,test,001,2022-06-22_09h36.04.130,MemoryStudy,2022.1.4,59.9356890044229,
Mem,99,speaker04.jpg,Z,Z,JPG\,speaker04,C:\\Users\\Psychology\\Documents\\ABExperiment\\MemoryStudy\\resources\\JPG\\speaker04.jpg,C:\\Users\\Psychology\\Documents\\ABExperiment\\MemoryStudy\\resources\\JPG\\,0,225,225,225,,,,,,,66.75259329998516,None,1,0.08757319999858737,66.75259329998516,None,66.75259329998516,None,test,001,2022-06-22_09h36.04.130,MemoryStudy,2022.1.4,59.9356890044229,
Mem,99,mushroom01.jpg,Z,Z,JPG\,mushroom01,C:\\Users\\Psychology\\Documents\\ABExperiment\\MemoryStudy\\resources\\JPG\\mushroom01.jpg,C:\\Users\\Psychology\\Documents\\ABExperiment\\MemoryStudy\\resources\\JPG\\,0,226,226,226,,,,,,,66.94172709999839,None,1,0.10666649998165667,66.94172709999839,None,66.94172709999839,None,test,001,2022-06-22_09h36.04.130,MemoryStudy,2022.1.4,59.9356890044229,
Mem,99,pear01.jpg,Z,Z,JPG\,pear01,C:\\Users\\Psychology\\Documents\\ABExperiment\\MemoryStudy\\resources\\JPG\\pear01.jpg,C:\\Users\\Psychology\\Documents\\ABExperiment\\MemoryStudy\\resources\\JPG\\,0,227,227,227,,,,,,,67.1603208000015,None,1,0.1122447999950964,67.1603208000015,None,67.1603208000015,None,test,001,2022-06-22_09h36.04.130,MemoryStudy,2022.1.4,59.9356890044229,
Mem,99,comb02a.jpg,Z,Z,JPG\,comb02a,C:\\Users\\Psychology\\Documents\\ABExperiment\\MemoryStudy\\resources\\JPG\\comb02a.jpg,C:\\Users\\Psychology\\Documents\\ABExperiment\\MemoryStudy\\resources\\JPG\\,0,228,228,228,,,,,,,67.37433449999662,None,1,0.12279439996927977,67.37433449999662,None,67.37433449999662,None,test,001,2022-06-22_09h36.04.130,MemoryStudy,2022.1.4,59.9356890044229,
Mem,99,plate01b.jpg,Z,Z,JPG\,plate01b,C:\\Users\\Psychology\\Documents\\ABExperiment\\MemoryStudy\\resources\\JPG\\plate01b.jpg,C:\\Users\\Psychology\\Documents\\ABExperiment\\MemoryStudy\\resources\\JPG\\,0,229,229,229,,,,,,,67.58378109999467,None,1,0.12918570000329055,67.58378109999467,None,67.58378109999467,None,test,001,2022-06-22_09h36.04.130,MemoryStudy,2022.1.4,59.9356890044229,
Mem,99,clock01a.jpg,Z,Z,JPG\,clock01a,C:\\Users\\Psychology\\Documents\\ABExperiment\\MemoryStudy\\resources\\JPG\\clock01a.jpg,C:\\Users\\Psychology\\Documents\\ABExperiment\\MemoryStudy\\resources\\JPG\\,0,230,230,230,,,,,,,67.85301099999924,None,1,0.08411660001729615,67.85301099999924,None,67.85301099999924,None,test,001,2022-06-22_09h36.04.130,MemoryStudy,2022.1.4,59.9356890044229,
Mem,99,button01.jpg,Z,Z,JPG\,button01,C:\\Users\\Psychology\\Documents\\ABExperiment\\MemoryStudy\\resources\\JPG\\button01.jpg,C:\\Users\\Psychology\\Documents\\ABExperiment\\MemoryStudy\\resources\\JPG\\,0,231,231,231,,,,,,,68.06020579999313,None,1,0.0928000999847427,68.06020579999313,None,68.06020579999313,None,test,001,2022-06-22_09h36.04.130,MemoryStudy,2022.1.4,59.9356890044229,
Mem,99,globe.jpg,Z,Z,JPG\,globe,C:\\Users\\Psychology\\Documents\\ABExperiment\\MemoryStudy\\resources\\JPG\\globe.jpg,C:\\Users\\Psychology\\Documents\\ABExperiment\\MemoryStudy\\resources\\JPG\\,0,232,232,232,,,,,,,68.27769550000085,None,1,0.09853830002248287,68.27769550000085,None,68.27769550000085,None,test,001,2022-06-22_09h36.04.130,MemoryStudy,2022.1.4,59.9356890044229,
Mem,99,sewingmachine01a.jpg,Z,Z,JPG\,sewingmachine01a,C:\\Users\\Psychology\\Documents\\ABExperiment\\MemoryStudy\\resources\\JPG\\sewingmachine01a.jpg,C:\\Users\\Psychology\\Documents\\ABExperiment\\MemoryStudy\\resources\\JPG\\,0,233,233,233,,,,,,,68.48794859999907,None,1,0.10537639999529347,68.48794859999907,None,68.48794859999907,None,test,001,2022-06-22_09h36.04.130,MemoryStudy,2022.1.4,59.9356890044229,
Mem,99,scarf.jpg,Z,Z,JPG\,scarf,C:\\Users\\Psychology\\Documents\\ABExperiment\\MemoryStudy\\resources\\JPG\\scarf.jpg,C:\\Users\\Psychology\\Documents\\ABExperiment\\MemoryStudy\\resources\\JPG\\,0,234,234,234,,,,,,,68.69557979999809,None,1,0.12073239998426288,68.69557979999809,None,68.69557979999809,None,test,001,2022-06-22_09h36.04.130,MemoryStudy,2022.1.4,59.9356890044229,
Mem,99,carrot01.jpg,Z,Z,JPG\,carrot01,C:\\Users\\Psychology\\Documents\\ABExperiment\\MemoryStudy\\resources\\JPG\\carrot01.jpg,C:\\Users\\Psychology\\Documents\\ABExperiment\\MemoryStudy\\resources\\JPG\\,0,235,235,235,,,,,,,68.93077710000216,None,1,0.10955009999452159,68.93077710000216,None,68.93077710000216,None,test,001,2022-06-22_09h36.04.130,MemoryStudy,2022.1.4,59.9356890044229,
Mem,99,book01b.jpg,Z,Z,JPG\,book01b,C:\\Users\\Psychology\\Documents\\ABExperiment\\MemoryStudy\\resources\\JPG\\book01b.jpg,C:\\Users\\Psychology\\Documents\\ABExperiment\\MemoryStudy\\resources\\JPG\\,0,236,236,236,,,,,,,69.16192959999898,None,1,0.09476249999715947,69.16192959999898,None,69.16192959999898,None,test,001,2022-06-22_09h36.04.130,MemoryStudy,2022.1.4,59.9356890044229,
Mem,99,tennisball01b.jpg,Z,Z,JPG\,tennisball01b,C:\\Users\\Psychology\\Documents\\ABExperiment\\MemoryStudy\\resources\\JPG\\tennisball01b.jpg,C:\\Users\\Psychology\\Documents\\ABExperiment\\MemoryStudy\\resources\\JPG\\,0,237,237,237,,,,,,,69.39178000000538,None,1,0.09646290002274327,69.39178000000538,None,69.39178000000538,None,test,001,2022-06-22_09h36.04.130,MemoryStudy,2022.1.4,59.9356890044229,
Mem,99,handcuffs.jpg,Z,Z,JPG\,handcuffs,C:\\Users\\Psychology\\Documents\\ABExperiment\\MemoryStudy\\resources\\JPG\\handcuffs.jpg,C:\\Users\\Psychology\\Documents\\ABExperiment\\MemoryStudy\\resources\\JPG\\,0,238,238,238,,,,,,,69.50588079998852,None,1,0.21474619998480193,69.50588079998852,None,69.50588079998852,None,test,001,2022-06-22_09h36.04.130,MemoryStudy,2022.1.4,59.9356890044229,
Mem,99,feather03a.jpg,Z,Z,JPG\,feather03a,C:\\Users\\Psychology\\Documents\\ABExperiment\\MemoryStudy\\resources\\JPG\\feather03a.jpg,C:\\Users\\Psychology\\Documents\\ABExperiment\\MemoryStudy\\resources\\JPG\\,0,239,239,239,,,,,,,69.84049370000139,None,1,0.1041630000108853,69.84049370000139,None,69.84049370000139,None,test,001,2022-06-22_09h36.04.130,MemoryStudy,2022.1.4,59.9356890044229,
Mem,99,sock01a.jpg,Z,Z,JPG\,sock01a,C:\\Users\\Psychology\\Documents\\ABExperiment\\MemoryStudy\\resources\\JPG\\sock01a.jpg,C:\\Users\\Psychology\\Documents\\ABExperiment\\MemoryStudy\\resources\\JPG\\,0,240,240,240,,,,,,,70.06690770000569,None,1,0.101971699972637,70.06690770000569,None,70.06690770000569,None,test,001,2022-06-22_09h36.04.130,MemoryStudy,2022.1.4,59.9356890044229,
Mem,99,printer02.jpg,Z,Z,JPG\,printer02,C:\\Users\\Psychology\\Documents\\ABExperiment\\MemoryStudy\\resources\\JPG\\printer02.jpg,C:\\Users\\Psychology\\Documents\\ABExperiment\\MemoryStudy\\resources\\JPG\\,0,241,241,241,,,,,,,70.2975218000065,None,1,0.08679179998580366,70.2975218000065,None,70.2975218000065,None,test,001,2022-06-22_09h36.04.130,MemoryStudy,2022.1.4,59.9356890044229,
Mem,99,garlic01a.jpg,Z,Z,JPG\,garlic01a,C:\\Users\\Psychology\\Documents\\ABExperiment\\MemoryStudy\\resources\\JPG\\garlic01a.jpg,C:\\Users\\Psychology\\Documents\\ABExperiment\\MemoryStudy\\resources\\JPG\\,0,242,242,242,,,,,,,70.48236009999528,None,1,0.11928660000558011,70.48236009999528,None,70.48236009999528,None,test,001,2022-06-22_09h36.04.130,MemoryStudy,2022.1.4,59.9356890044229,
Mem,99,watermelon01.jpg,Z,Z,JPG\,watermelon01,C:\\Users\\Psychology\\Documents\\ABExperiment\\MemoryStudy\\resources\\JPG\\watermelon01.jpg,C:\\Users\\Psychology\\Documents\\ABExperiment\\MemoryStudy\\resources\\JPG\\,0,243,243,243,,,,,,,70.73578359998646,None,1,0.08949260000372306,70.73578359998646,None,70.73578359998646,None,test,001,2022-06-22_09h36.04.130,MemoryStudy,2022.1.4,59.9356890044229,
Mem,99,stapler03a.jpg,Z,Z,JPG\,stapler03a,C:\\Users\\Psychology\\Documents\\ABExperiment\\MemoryStudy\\resources\\JPG\\stapler03a.jpg,C:\\Users\\Psychology\\Documents\\ABExperiment\\MemoryStudy\\resources\\JPG\\,0,244,244,244,,,,,,,70.95670829998562,None,1,0.09979320000275038,70.95670829998562,None,70.95670829998562,None,test,001,2022-06-22_09h36.04.130,MemoryStudy,2022.1.4,59.9356890044229,
Mem,99,microscope.jpg,Z,Z,JPG\,microscope,C:\\Users\\Psychology\\Documents\\ABExperiment\\MemoryStudy\\resources\\JPG\\microscope.jpg,C:\\Users\\Psychology\\Documents\\ABExperiment\\MemoryStudy\\resources\\JPG\\,0,245,245,245,,,,,,,71.14968000000226,None,1,0.13091639999765903,71.14968000000226,None,71.14968000000226,None,test,001,2022-06-22_09h36.04.130,MemoryStudy,2022.1.4,59.9356890044229,
Mem,99,blueberry01.jpg,Z,Z,JPG\,blueberry01,C:\\Users\\Psychology\\Documents\\ABExperiment\\MemoryStudy\\resources\\JPG\\blueberry01.jpg,C:\\Users\\Psychology\\Documents\\ABExperiment\\MemoryStudy\\resources\\JPG\\,0,246,246,246,,,,,,,71.39720509998733,None,1,0.09968729998217896,71.39720509998733,None,71.39720509998733,None,test,001,2022-06-22_09h36.04.130,MemoryStudy,2022.1.4,59.9356890044229,
Mem,99,computerkeyboard02.jpg,Z,Z,JPG\,computerkeyboard02,C:\\Users\\Psychology\\Documents\\ABExperiment\\MemoryStudy\\resources\\JPG\\computerkeyboard02.jpg,C:\\Users\\Psychology\\Documents\\ABExperiment\\MemoryStudy\\resources\\JPG\\,0,247,247,247,,,,,,,71.59363399998983,None,1,0.1192968999966979,71.59363399998983,None,71.59363399998983,None,test,001,2022-06-22_09h36.04.130,MemoryStudy,2022.1.4,59.9356890044229,
Mem,99,lamp04a.jpg,Z,Z,JPG\,lamp04a,C:\\Users\\Psychology\\Documents\\ABExperiment\\MemoryStudy\\resources\\JPG\\lamp04a.jpg,C:\\Users\\Psychology\\Documents\\ABExperiment\\MemoryStudy\\resources\\JPG\\,0,248,248,248,,,,,,,71.8014925000025,None,1,0.1272836999851279,71.8014925000025,None,71.8014925000025,None,test,001,2022-06-22_09h36.04.130,MemoryStudy,2022.1.4,59.9356890044229,
Mem,99,match.jpg,Z,Z,JPG\,match,C:\\Users\\Psychology\\Documents\\ABExperiment\\MemoryStudy\\resources\\JPG\\match.jpg,C:\\Users\\Psychology\\Documents\\ABExperiment\\MemoryStudy\\resources\\JPG\\,0,249,249,249,,,,,,,72.03738359999261,None,1,0.11583920000703074,72.03738359999261,None,72.03738359999261,None,test,001,2022-06-22_09h36.04.130,MemoryStudy,2022.1.4,59.9356890044229,
Mem,99,iron01b.jpg,Z,Z,JPG\,iron01b,C:\\Users\\Psychology\\Documents\\ABExperiment\\MemoryStudy\\resources\\JPG\\iron01b.jpg,C:\\Users\\Psychology\\Documents\\ABExperiment\\MemoryStudy\\resources\\JPG\\,0,250,250,250,,,,,,,72.26722089998657,None,1,0.11720030001015402,72.26722089998657,None,72.26722089998657,None,test,001,2022-06-22_09h36.04.130,MemoryStudy,2022.1.4,59.9356890044229,
Mem,99,ring01.jpg,Z,Z,JPG\,ring01,C:\\Users\\Psychology\\Documents\\ABExperiment\\MemoryStudy\\resources\\JPG\\ring01.jpg,C:\\Users\\Psychology\\Documents\\ABExperiment\\MemoryStudy\\resources\\JPG\\,0,251,251,251,,,,,,,72.51454780000495,None,1,0.0938824999902863,72.51454780000495,None,72.51454780000495,None,test,001,2022-06-22_09h36.04.130,MemoryStudy,2022.1.4,59.9356890044229,
Mem,99,pen04b.jpg,Z,Z,JPG\,pen04b,C:\\Users\\Psychology\\Documents\\ABExperiment\\MemoryStudy\\resources\\JPG\\pen04b.jpg,C:\\Users\\Psychology\\Documents\\ABExperiment\\MemoryStudy\\resources\\JPG\\,0,252,252,252,,,,,,,72.71009279999998,None,1,0.11507129998062737,72.71009279999998,None,72.71009279999998,None,test,001,2022-06-22_09h36.04.130,MemoryStudy,2022.1.4,59.9356890044229,
Mem,99,binoculars01b.jpg,Z,Z,JPG\,binoculars01b,C:\\Users\\Psychology\\Documents\\ABExperiment\\MemoryStudy\\resources\\JPG\\binoculars01b.jpg,C:\\Users\\Psychology\\Documents\\ABExperiment\\MemoryStudy\\resources\\JPG\\,0,253,253,253,,,,,,,72.93067599998903,None,1,0.12541429998236708,72.93067599998903,None,72.93067599998903,None,test,001,2022-06-22_09h36.04.130,MemoryStudy,2022.1.4,59.9356890044229,
Mem,99,cauliflower01.jpg,Z,Z,JPG\,cauliflower01,C:\\Users\\Psychology\\Documents\\ABExperiment\\MemoryStudy\\resources\\JPG\\cauliflower01.jpg,C:\\Users\\Psychology\\Documents\\ABExperiment\\MemoryStudy\\resources\\JPG\\,0,254,254,254,,,,,,,73.143825200008,None,1,0.1445778000052087,73.143825200008,None,73.143825200008,None,test,001,2022-06-22_09h36.04.130,MemoryStudy,2022.1.4,59.9356890044229,
