TrialType,Lag,Image,T1PA,T2PA,PicFolder,Picture,FullPathName,FilePath,trials.thisRepN,trials.thisTrialN,trials.thisN,trials.thisIndex,text.started,text.stopped,End_Instructions.keys,End_Instructions.rt,End_Instructions.started,End_Instructions.stopped,MemTest.started,MemTest.stopped,MemResponse.keys,MemResponse.rt,MemResponse.started,MemResponse.stopped,Display.started,Display.stopped,participant,session,date,expName,psychopyVersion,frameRate,
,,,,,,,,,,,,,10.562210400006734,None,space,1.2879952999937814,10.562210400006734,None,,,,,,,,,test,001,2022-06-22_09h29.36.677,MemoryStudy,2022.1.4,59.91044587059091,
Mem,1,giraffe.jpg,P,P,JPG\,giraffe,C:\\Users\\Psychology\\Documents\\ABExperiment\\MemoryStudy\\resources\\JPG\\giraffe.jpg,C:\\Users\\Psychology\\Documents\\ABExperiment\\MemoryStudy\\resources\\JPG\\,0,0,0,0,,,,,,,12.047755800012965,None,1,1.281278200011002,12.047755800012965,None,12.047755800012965,None,test,001,2022-06-22_09h29.36.677,MemoryStudy,2022.1.4,59.91044587059091,
Mem,1,greathornowl.jpg,P,P,JPG\,greathornowl,C:\\Users\\Psychology\\Documents\\ABExperiment\\MemoryStudy\\resources\\JPG\\greathornowl.jpg,C:\\Users\\Psychology\\Documents\\ABExperiment\\MemoryStudy\\resources\\JPG\\,0,1,1,1,,,,,,,13.361202400003094,None,1,1.3514742000261322,13.361202400003094,None,13.361202400003094,None,test,001,2022-06-22_09h29.36.677,MemoryStudy,2022.1.4,59.91044587059091,
Mem,1,candle08b.jpg,P,P,JPG\,candle08b,C:\\Users\\Psychology\\Documents\\ABExperiment\\MemoryStudy\\resources\\JPG\\candle08b.jpg,C:\\Users\\Psychology\\Documents\\ABExperiment\\MemoryStudy\\resources\\JPG\\,0,2,2,2,,,,,,,14.867432400002144,None,1,0.7971035999944434,14.867432400002144,None,14.867432400002144,None,test,001,2022-06-22_09h29.36.677,MemoryStudy,2022.1.4,59.91044587059091,
Mem,1,horse.jpg,P,P,JPG\,horse,C:\\Users\\Psychology\\Documents\\ABExperiment\\MemoryStudy\\resources\\JPG\\horse.jpg,C:\\Users\\Psychology\\Documents\\ABExperiment\\MemoryStudy\\resources\\JPG\\,0,3,3,3,,,,,,,15.751088400022127,None,1,0.44131840000045486,15.751088400022127,None,15.751088400022127,None,test,001,2022-06-22_09h29.36.677,MemoryStudy,2022.1.4,59.91044587059091,
Mem,1,snowman.jpg,P,P,JPG\,snowman,C:\\Users\\Psychology\\Documents\\ABExperiment\\MemoryStudy\\resources\\JPG\\snowman.jpg,C:\\Users\\Psychology\\Documents\\ABExperiment\\MemoryStudy\\resources\\JPG\\,0,4,4,4,,,,,,,16.21012140001403,None,1,0.430320399987977,16.21012140001403,None,16.21012140001403,None,test,001,2022-06-22_09h29.36.677,MemoryStudy,2022.1.4,59.91044587059091,
Mem,1,squirrel.jpg,P,P,JPG\,squirrel,C:\\Users\\Psychology\\Documents\\ABExperiment\\MemoryStudy\\resources\\JPG\\squirrel.jpg,C:\\Users\\Psychology\\Documents\\ABExperiment\\MemoryStudy\\resources\\JPG\\,0,5,5,5,,,,,,,16.663703199999873,None,1,0.38483610001276247,16.663703199999873,None,16.663703199999873,None,test,001,2022-06-22_09h29.36.677,MemoryStudy,2022.1.4,59.91044587059091,
Mem,1,firtree.jpg,P,P,JPG\,firtree,C:\\Users\\Psychology\\Documents\\ABExperiment\\MemoryStudy\\resources\\JPG\\firtree.jpg,C:\\Users\\Psychology\\Documents\\ABExperiment\\MemoryStudy\\resources\\JPG\\,0,6,6,6,,,,,,,17.17596260001301,None,1,0.36096229997929186,17.17596260001301,None,17.17596260001301,None,test,001,2022-06-22_09h29.36.677,MemoryStudy,2022.1.4,59.91044587059091,
Mem,1,bowlingball.jpg,P,P,JPG\,bowlingball,C:\\Users\\Psychology\\Documents\\ABExperiment\\MemoryStudy\\resources\\JPG\\bowlingball.jpg,C:\\Users\\Psychology\\Documents\\ABExperiment\\MemoryStudy\\resources\\JPG\\,0,7,7,7,,,,,,,17.56144160000258,None,1,0.43128380001871847,17.56144160000258,None,17.56144160000258,None,test,001,2022-06-22_09h29.36.677,MemoryStudy,2022.1.4,59.91044587059091,
Mem,1,bowlingpin.jpg,P,P,JPG\,bowlingpin,C:\\Users\\Psychology\\Documents\\ABExperiment\\MemoryStudy\\resources\\JPG\\bowlingpin.jpg,C:\\Users\\Psychology\\Documents\\ABExperiment\\MemoryStudy\\resources\\JPG\\,0,8,8,8,,,,,,,18.011903500009794,None,1,0.39658679999411106,18.011903500009794,None,18.011903500009794,None,test,001,2022-06-22_09h29.36.677,MemoryStudy,2022.1.4,59.91044587059091,
Mem,1,candycane01a.jpg,P,P,JPG\,candycane01a,C:\\Users\\Psychology\\Documents\\ABExperiment\\MemoryStudy\\resources\\JPG\\candycane01a.jpg,C:\\Users\\Psychology\\Documents\\ABExperiment\\MemoryStudy\\resources\\JPG\\,0,9,9,9,,,,,,,18.42903960001422,None,1,0.39581069999258034,18.42903960001422,None,18.42903960001422,None,test,001,2022-06-22_09h29.36.677,MemoryStudy,2022.1.4,59.91044587059091,
Mem,1,dolphin01.jpg,P,P,JPG\,dolphin01,C:\\Users\\Psychology\\Documents\\ABExperiment\\MemoryStudy\\resources\\JPG\\dolphin01.jpg,C:\\Users\\Psychology\\Documents\\ABExperiment\\MemoryStudy\\resources\\JPG\\,0,10,10,10,,,,,,,18.845998400007375,None,1,0.5788938000041526,18.845998400007375,None,18.845998400007375,None,test,001,2022-06-22_09h29.36.677,MemoryStudy,2022.1.4,59.91044587059091,
Mem,1,dromedary.jpg,P,P,JPG\,dromedary,C:\\Users\\Psychology\\Documents\\ABExperiment\\MemoryStudy\\resources\\JPG\\dromedary.jpg,C:\\Users\\Psychology\\Documents\\ABExperiment\\MemoryStudy\\resources\\JPG\\,0,11,11,11,,,,,,,19.446692099998472,None,1,1.362579500011634,19.446692099998472,None,19.446692099998472,None,test,001,2022-06-22_09h29.36.677,MemoryStudy,2022.1.4,59.91044587059091,
Mem,1,football.jpg,P,P,JPG\,football,C:\\Users\\Psychology\\Documents\\ABExperiment\\MemoryStudy\\resources\\JPG\\football.jpg,C:\\Users\\Psychology\\Documents\\ABExperiment\\MemoryStudy\\resources\\JPG\\,0,12,12,12,,,,,,,20.831353100016713,None,1,1.4985949999827426,20.831353100016713,None,20.831353100016713,None,test,001,2022-06-22_09h29.36.677,MemoryStudy,2022.1.4,59.91044587059091,
Mem,1,golfball.jpg,P,P,JPG\,golfball,C:\\Users\\Psychology\\Documents\\ABExperiment\\MemoryStudy\\resources\\JPG\\golfball.jpg,C:\\Users\\Psychology\\Documents\\ABExperiment\\MemoryStudy\\resources\\JPG\\,0,13,13,13,,,,,,,22.352857799996855,None,1,0.4489210000028834,22.352857799996855,None,22.352857799996855,None,test,001,2022-06-22_09h29.36.677,MemoryStudy,2022.1.4,59.91044587059091,
Mem,1,guitarcase.jpg,P,P,JPG\,guitarcase,C:\\Users\\Psychology\\Documents\\ABExperiment\\MemoryStudy\\resources\\JPG\\guitarcase.jpg,C:\\Users\\Psychology\\Documents\\ABExperiment\\MemoryStudy\\resources\\JPG\\,0,14,14,14,,,,,,,22.833559000020614,None,1,0.4153402000083588,22.833559000020614,None,22.833559000020614,None,test,001,2022-06-22_09h29.36.677,MemoryStudy,2022.1.4,59.91044587059091,
Mem,1,jellybean.jpg,P,P,JPG\,jellybean,C:\\Users\\Psychology\\Documents\\ABExperiment\\MemoryStudy\\resources\\JPG\\jellybean.jpg,C:\\Users\\Psychology\\Documents\\ABExperiment\\MemoryStudy\\resources\\JPG\\,0,15,15,15,,,,,,,23.267448700004024,None,1,0.43741299997782335,23.267448700004024,None,23.267448700004024,None,test,001,2022-06-22_09h29.36.677,MemoryStudy,2022.1.4,59.91044587059091,
Mem,1,kangaroo.jpg,P,P,JPG\,kangaroo,C:\\Users\\Psychology\\Documents\\ABExperiment\\MemoryStudy\\resources\\JPG\\kangaroo.jpg,C:\\Users\\Psychology\\Documents\\ABExperiment\\MemoryStudy\\resources\\JPG\\,0,16,16,16,,,,,,,23.738368499994976,None,1,0.3744789000193123,23.738368499994976,None,23.738368499994976,None,test,001,2022-06-22_09h29.36.677,MemoryStudy,2022.1.4,59.91044587059091,
Mem,1,kite.jpg,P,P,JPG\,kite,C:\\Users\\Psychology\\Documents\\ABExperiment\\MemoryStudy\\resources\\JPG\\kite.jpg,C:\\Users\\Psychology\\Documents\\ABExperiment\\MemoryStudy\\resources\\JPG\\,0,17,17,17,,,,,,,24.13659110001754,None,1,0.3836421000014525,24.13659110001754,None,24.13659110001754,None,test,001,2022-06-22_09h29.36.677,MemoryStudy,2022.1.4,59.91044587059091,
Mem,1,lightswitch01.jpg,P,P,JPG\,lightswitch01,C:\\Users\\Psychology\\Documents\\ABExperiment\\MemoryStudy\\resources\\JPG\\lightswitch01.jpg,C:\\Users\\Psychology\\Documents\\ABExperiment\\MemoryStudy\\resources\\JPG\\,0,18,18,18,,,,,,,24.553839800006244,None,1,0.407208399992669,24.553839800006244,None,24.553839800006244,None,test,001,2022-06-22_09h29.36.677,MemoryStudy,2022.1.4,59.91044587059091,
Mem,1,locker.jpg,P,P,JPG\,locker,C:\\Users\\Psychology\\Documents\\ABExperiment\\MemoryStudy\\resources\\JPG\\locker.jpg,C:\\Users\\Psychology\\Documents\\ABExperiment\\MemoryStudy\\resources\\JPG\\,0,19,19,19,,,,,,,24.987013500009198,None,1,0.3737296999897808,24.987013500009198,None,24.987013500009198,None,test,001,2022-06-22_09h29.36.677,MemoryStudy,2022.1.4,59.91044587059091,
Mem,1,mailbox01.jpg,P,P,JPG\,mailbox01,C:\\Users\\Psychology\\Documents\\ABExperiment\\MemoryStudy\\resources\\JPG\\mailbox01.jpg,C:\\Users\\Psychology\\Documents\\ABExperiment\\MemoryStudy\\resources\\JPG\\,0,20,20,20,,,,,,,25.4762748000212,None,1,0.7401893000060227,25.4762748000212,None,25.4762748000212,None,test,001,2022-06-22_09h29.36.677,MemoryStudy,2022.1.4,59.91044587059091,
Mem,1,mailbox02.jpg,P,P,JPG\,mailbox02,C:\\Users\\Psychology\\Documents\\ABExperiment\\MemoryStudy\\resources\\JPG\\mailbox02.jpg,C:\\Users\\Psychology\\Documents\\ABExperiment\\MemoryStudy\\resources\\JPG\\,0,21,21,21,,,,,,,26.23825819999911,None,1,0.48292140002013184,26.23825819999911,None,26.23825819999911,None,test,001,2022-06-22_09h29.36.677,MemoryStudy,2022.1.4,59.91044587059091,
Mem,1,mattress.jpg,P,P,JPG\,mattress,C:\\Users\\Psychology\\Documents\\ABExperiment\\MemoryStudy\\resources\\JPG\\mattress.jpg,C:\\Users\\Psychology\\Documents\\ABExperiment\\MemoryStudy\\resources\\JPG\\,0,22,22,22,,,,,,,26.738773999997647,None,1,0.6619280999875627,26.738773999997647,None,26.738773999997647,None,test,001,2022-06-22_09h29.36.677,MemoryStudy,2022.1.4,59.91044587059091,
Mem,1,pumpkin.jpg,P,P,JPG\,pumpkin,C:\\Users\\Psychology\\Documents\\ABExperiment\\MemoryStudy\\resources\\JPG\\pumpkin.jpg,C:\\Users\\Psychology\\Documents\\ABExperiment\\MemoryStudy\\resources\\JPG\\,0,23,23,23,,,,,,,27.421191200002795,None,1,0.44304109999211505,27.421191200002795,None,27.421191200002795,None,test,001,2022-06-22_09h29.36.677,MemoryStudy,2022.1.4,59.91044587059091,
Mem,1,schoolbus.jpg,P,P,JPG\,schoolbus,C:\\Users\\Psychology\\Documents\\ABExperiment\\MemoryStudy\\resources\\JPG\\schoolbus.jpg,C:\\Users\\Psychology\\Documents\\ABExperiment\\MemoryStudy\\resources\\JPG\\,0,24,24,24,,,,,,,27.89206360001117,None,1,0.3805585000081919,27.89206360001117,None,27.89206360001117,None,test,001,2022-06-22_09h29.36.677,MemoryStudy,2022.1.4,59.91044587059091,
Mem,1,skateboard.jpg,P,P,JPG\,skateboard,C:\\Users\\Psychology\\Documents\\ABExperiment\\MemoryStudy\\resources\\JPG\\skateboard.jpg,C:\\Users\\Psychology\\Documents\\ABExperiment\\MemoryStudy\\resources\\JPG\\,0,25,25,25,,,,,,,28.30863149999641,None,1,0.36417529999744147,28.30863149999641,None,28.30863149999641,None,test,001,2022-06-22_09h29.36.677,MemoryStudy,2022.1.4,59.91044587059091,
Mem,1,soccerball.jpg,P,P,JPG\,soccerball,C:\\Users\\Psychology\\Documents\\ABExperiment\\MemoryStudy\\resources\\JPG\\soccerball.jpg,C:\\Users\\Psychology\\Documents\\ABExperiment\\MemoryStudy\\resources\\JPG\\,0,26,26,26,,,,,,,28.708457000000635,None,1,0.37253510000300594,28.708457000000635,None,28.708457000000635,None,test,001,2022-06-22_09h29.36.677,MemoryStudy,2022.1.4,59.91044587059091,
Mem,1,wheelchair.jpg,P,P,JPG\,wheelchair,C:\\Users\\Psychology\\Documents\\ABExperiment\\MemoryStudy\\resources\\JPG\\wheelchair.jpg,C:\\Users\\Psychology\\Documents\\ABExperiment\\MemoryStudy\\resources\\JPG\\,0,27,27,27,,,,,,,29.106241600005887,None,1,0.3668871000118088,29.106241600005887,None,29.106241600005887,None,test,001,2022-06-22_09h29.36.677,MemoryStudy,2022.1.4,59.91044587059091,
Mem,1,zebra.jpg,P,P,JPG\,zebra,C:\\Users\\Psychology\\Documents\\ABExperiment\\MemoryStudy\\resources\\JPG\\zebra.jpg,C:\\Users\\Psychology\\Documents\\ABExperiment\\MemoryStudy\\resources\\JPG\\,0,28,28,28,,,,,,,29.489986400003545,None,1,0.38338320000912063,29.489986400003545,None,29.489986400003545,None,test,001,2022-06-22_09h29.36.677,MemoryStudy,2022.1.4,59.91044587059091,
Mem,1,pooltable.jpg,P,P,JPG\,pooltable,C:\\Users\\Psychology\\Documents\\ABExperiment\\MemoryStudy\\resources\\JPG\\pooltable.jpg,C:\\Users\\Psychology\\Documents\\ABExperiment\\MemoryStudy\\resources\\JPG\\,0,29,29,29,,,,,,,29.890431100007845,None,1,0.31969309999840334,29.890431100007845,None,29.890431100007845,None,test,001,2022-06-22_09h29.36.677,MemoryStudy,2022.1.4,59.91044587059091,
Mem,1,swing.jpg,P,P,JPG\,swing,C:\\Users\\Psychology\\Documents\\ABExperiment\\MemoryStudy\\resources\\JPG\\swing.jpg,C:\\Users\\Psychology\\Documents\\ABExperiment\\MemoryStudy\\resources\\JPG\\,0,30,30,30,,,,,,,30.240843100007623,None,1,0.3194153999793343,30.240843100007623,None,30.240843100007623,None,test,001,2022-06-22_09h29.36.677,MemoryStudy,2022.1.4,59.91044587059091,
Mem,1,africanelephant.jpg,P,P,JPG\,africanelephant,C:\\Users\\Psychology\\Documents\\ABExperiment\\MemoryStudy\\resources\\JPG\\africanelephant.jpg,C:\\Users\\Psychology\\Documents\\ABExperiment\\MemoryStudy\\resources\\JPG\\,0,31,31,31,,,,,,,30.591054300020915,None,1,0.31494099998963065,30.591054300020915,None,30.591054300020915,None,test,001,2022-06-22_09h29.36.677,MemoryStudy,2022.1.4,59.91044587059091,
Mem,1,apron.jpg,P,P,JPG\,apron,C:\\Users\\Psychology\\Documents\\ABExperiment\\MemoryStudy\\resources\\JPG\\apron.jpg,C:\\Users\\Psychology\\Documents\\ABExperiment\\MemoryStudy\\resources\\JPG\\,0,32,32,32,,,,,,,30.92464559999644,None,1,0.30788080001366325,30.92464559999644,None,30.92464559999644,None,test,001,2022-06-22_09h29.36.677,MemoryStudy,2022.1.4,59.91044587059091,
Mem,1,barnowl.jpg,P,P,JPG\,barnowl,C:\\Users\\Psychology\\Documents\\ABExperiment\\MemoryStudy\\resources\\JPG\\barnowl.jpg,C:\\Users\\Psychology\\Documents\\ABExperiment\\MemoryStudy\\resources\\JPG\\,0,33,33,33,,,,,,,31.332407500012778,None,1,0.25197459998889826,31.332407500012778,None,31.332407500012778,None,test,001,2022-06-22_09h29.36.677,MemoryStudy,2022.1.4,59.91044587059091,
Mem,1,basketball01.jpg,P,P,JPG\,basketball01,C:\\Users\\Psychology\\Documents\\ABExperiment\\MemoryStudy\\resources\\JPG\\basketball01.jpg,C:\\Users\\Psychology\\Documents\\ABExperiment\\MemoryStudy\\resources\\JPG\\,0,34,34,34,,,,,,,31.60896209999919,None,1,0.32834249999723397,31.60896209999919,None,31.60896209999919,None,test,001,2022-06-22_09h29.36.677,MemoryStudy,2022.1.4,59.91044587059091,
Mem,1,bat.jpg,P,P,JPG\,bat,C:\\Users\\Psychology\\Documents\\ABExperiment\\MemoryStudy\\resources\\JPG\\bat.jpg,C:\\Users\\Psychology\\Documents\\ABExperiment\\MemoryStudy\\resources\\JPG\\,0,35,35,35,,,,,,,31.959091299999272,None,1,0.30591789999743924,31.959091299999272,None,31.959091299999272,None,test,001,2022-06-22_09h29.36.677,MemoryStudy,2022.1.4,59.91044587059091,
Mem,1,cloud.jpg,P,P,JPG\,cloud,C:\\Users\\Psychology\\Documents\\ABExperiment\\MemoryStudy\\resources\\JPG\\cloud.jpg,C:\\Users\\Psychology\\Documents\\ABExperiment\\MemoryStudy\\resources\\JPG\\,0,36,36,36,,,,,,,32.29280510000535,None,1,0.30820860000676475,32.29280510000535,None,32.29280510000535,None,test,001,2022-06-22_09h29.36.677,MemoryStudy,2022.1.4,59.91044587059091,
Mem,1,crab01.jpg,P,P,JPG\,crab01,C:\\Users\\Psychology\\Documents\\ABExperiment\\MemoryStudy\\resources\\JPG\\crab01.jpg,C:\\Users\\Psychology\\Documents\\ABExperiment\\MemoryStudy\\resources\\JPG\\,0,37,37,37,,,,,,,32.62906170001952,None,1,0.33290280000073835,32.62906170001952,None,32.62906170001952,None,test,001,2022-06-22_09h29.36.677,MemoryStudy,2022.1.4,59.91044587059091,
Mem,1,cupcake.jpg,P,P,JPG\,cupcake,C:\\Users\\Psychology\\Documents\\ABExperiment\\MemoryStudy\\resources\\JPG\\cupcake.jpg,C:\\Users\\Psychology\\Documents\\ABExperiment\\MemoryStudy\\resources\\JPG\\,0,38,38,38,,,,,,,32.99339580000378,None,1,0.2955634999962058,32.99339580000378,None,32.99339580000378,None,test,001,2022-06-22_09h29.36.677,MemoryStudy,2022.1.4,59.91044587059091,
Mem,1,donut.jpg,P,P,JPG\,donut,C:\\Users\\Psychology\\Documents\\ABExperiment\\MemoryStudy\\resources\\JPG\\donut.jpg,C:\\Users\\Psychology\\Documents\\ABExperiment\\MemoryStudy\\resources\\JPG\\,0,39,39,39,,,,,,,33.31073870000546,None,1,0.2902974000026006,33.31073870000546,None,33.31073870000546,None,test,001,2022-06-22_09h29.36.677,MemoryStudy,2022.1.4,59.91044587059091,
Mem,1,eiffeltower.jpg,P,P,JPG\,eiffeltower,C:\\Users\\Psychology\\Documents\\ABExperiment\\MemoryStudy\\resources\\JPG\\eiffeltower.jpg,C:\\Users\\Psychology\\Documents\\ABExperiment\\MemoryStudy\\resources\\JPG\\,0,40,40,40,,,,,,,33.62772770001902,None,1,0.28527910000411794,33.62772770001902,None,33.62772770001902,None,test,001,2022-06-22_09h29.36.677,MemoryStudy,2022.1.4,59.91044587059091,
Mem,1,exitsign.jpg,P,P,JPG\,exitsign,C:\\Users\\Psychology\\Documents\\ABExperiment\\MemoryStudy\\resources\\JPG\\exitsign.jpg,C:\\Users\\Psychology\\Documents\\ABExperiment\\MemoryStudy\\resources\\JPG\\,0,41,41,41,,,,,,,33.9443609000009,None,1,0.28159540001070127,33.9443609000009,None,33.9443609000009,None,test,001,2022-06-22_09h29.36.677,MemoryStudy,2022.1.4,59.91044587059091,
Mem,1,fortunecookie.jpg,P,P,JPG\,fortunecookie,C:\\Users\\Psychology\\Documents\\ABExperiment\\MemoryStudy\\resources\\JPG\\fortunecookie.jpg,C:\\Users\\Psychology\\Documents\\ABExperiment\\MemoryStudy\\resources\\JPG\\,0,42,42,42,,,,,,,34.24490980000701,None,1,0.2849209000123665,34.24490980000701,None,34.24490980000701,None,test,001,2022-06-22_09h29.36.677,MemoryStudy,2022.1.4,59.91044587059091,
Mem,1,harmonica.jpg,P,P,JPG\,harmonica,C:\\Users\\Psychology\\Documents\\ABExperiment\\MemoryStudy\\resources\\JPG\\harmonica.jpg,C:\\Users\\Psychology\\Documents\\ABExperiment\\MemoryStudy\\resources\\JPG\\,0,43,43,43,,,,,,,34.561673899996094,None,1,0.23923439998179674,34.561673899996094,None,34.561673899996094,None,test,001,2022-06-22_09h29.36.677,MemoryStudy,2022.1.4,59.91044587059091,
Mem,1,doghouse.jpg,P,P,JPG\,doghouse,C:\\Users\\Psychology\\Documents\\ABExperiment\\MemoryStudy\\resources\\JPG\\doghouse.jpg,C:\\Users\\Psychology\\Documents\\ABExperiment\\MemoryStudy\\resources\\JPG\\,0,44,44,44,,,,,,,34.82876269999542,None,1,0.2678340000275057,34.82876269999542,None,34.82876269999542,None,test,001,2022-06-22_09h29.36.677,MemoryStudy,2022.1.4,59.91044587059091,
Mem,1,ladder.jpg,P,P,JPG\,ladder,C:\\Users\\Psychology\\Documents\\ABExperiment\\MemoryStudy\\resources\\JPG\\ladder.jpg,C:\\Users\\Psychology\\Documents\\ABExperiment\\MemoryStudy\\resources\\JPG\\,0,45,45,45,,,,,,,35.128885600017384,None,1,0.28792040000553243,35.128885600017384,None,35.128885600017384,None,test,001,2022-06-22_09h29.36.677,MemoryStudy,2022.1.4,59.91044587059091,
Mem,1,lawnmower.jpg,P,P,JPG\,lawnmower,C:\\Users\\Psychology\\Documents\\ABExperiment\\MemoryStudy\\resources\\JPG\\lawnmower.jpg,C:\\Users\\Psychology\\Documents\\ABExperiment\\MemoryStudy\\resources\\JPG\\,0,46,46,46,,,,,,,35.44621300001745,None,1,0.2827115000109188,35.44621300001745,None,35.44621300001745,None,test,001,2022-06-22_09h29.36.677,MemoryStudy,2022.1.4,59.91044587059091,
Mem,1,parkingsign.jpg,P,P,JPG\,parkingsign,C:\\Users\\Psychology\\Documents\\ABExperiment\\MemoryStudy\\resources\\JPG\\parkingsign.jpg,C:\\Users\\Psychology\\Documents\\ABExperiment\\MemoryStudy\\resources\\JPG\\,0,47,47,47,,,,,,,35.746558000013465,None,1,0.3341968000167981,35.746558000013465,None,35.746558000013465,None,test,001,2022-06-22_09h29.36.677,MemoryStudy,2022.1.4,59.91044587059091,
Mem,1,skunk.jpg,P,P,JPG\,skunk,C:\\Users\\Psychology\\Documents\\ABExperiment\\MemoryStudy\\resources\\JPG\\skunk.jpg,C:\\Users\\Psychology\\Documents\\ABExperiment\\MemoryStudy\\resources\\JPG\\,0,48,48,48,,,,,,,36.11328799999319,None,1,0.38369499999680556,36.11328799999319,None,36.11328799999319,None,test,001,2022-06-22_09h29.36.677,MemoryStudy,2022.1.4,59.91044587059091,
Mem,1,snowboard.jpg,P,P,JPG\,snowboard,C:\\Users\\Psychology\\Documents\\ABExperiment\\MemoryStudy\\resources\\JPG\\snowboard.jpg,C:\\Users\\Psychology\\Documents\\ABExperiment\\MemoryStudy\\resources\\JPG\\,0,49,49,49,,,,,,,36.51395320001757,None,1,0.3511036999989301,36.51395320001757,None,36.51395320001757,None,test,001,2022-06-22_09h29.36.677,MemoryStudy,2022.1.4,59.91044587059091,
Mem,1,tiger02.jpg,P,P,JPG\,tiger02,C:\\Users\\Psychology\\Documents\\ABExperiment\\MemoryStudy\\resources\\JPG\\tiger02.jpg,C:\\Users\\Psychology\\Documents\\ABExperiment\\MemoryStudy\\resources\\JPG\\,0,50,50,50,,,,,,,36.89742190000834,None,1,0.3758609000069555,36.89742190000834,None,36.89742190000834,None,test,001,2022-06-22_09h29.36.677,MemoryStudy,2022.1.4,59.91044587059091,
Mem,1,tree.jpg,P,P,JPG\,tree,C:\\Users\\Psychology\\Documents\\ABExperiment\\MemoryStudy\\resources\\JPG\\tree.jpg,C:\\Users\\Psychology\\Documents\\ABExperiment\\MemoryStudy\\resources\\JPG\\,0,51,51,51,,,,,,,37.30031950000557,None,1,0.30873379998956807,37.30031950000557,None,37.30031950000557,None,test,001,2022-06-22_09h29.36.677,MemoryStudy,2022.1.4,59.91044587059091,
Mem,1,waterfall.jpg,P,P,JPG\,waterfall,C:\\Users\\Psychology\\Documents\\ABExperiment\\MemoryStudy\\resources\\JPG\\waterfall.jpg,C:\\Users\\Psychology\\Documents\\ABExperiment\\MemoryStudy\\resources\\JPG\\,0,52,52,52,,,,,,,37.63185050000902,None,1,0.3535569000232499,37.63185050000902,None,37.63185050000902,None,test,001,2022-06-22_09h29.36.677,MemoryStudy,2022.1.4,59.91044587059091,
Mem,1,bow.jpg,P,P,JPG\,bow,C:\\Users\\Psychology\\Documents\\ABExperiment\\MemoryStudy\\resources\\JPG\\bow.jpg,C:\\Users\\Psychology\\Documents\\ABExperiment\\MemoryStudy\\resources\\JPG\\,0,53,53,53,,,,,,,38.01517490000697,None,1,0.34498100000200793,38.01517490000697,None,38.01517490000697,None,test,001,2022-06-22_09h29.36.677,MemoryStudy,2022.1.4,59.91044587059091,
Mem,1,arugula.jpg,P,P,JPG\,arugula,C:\\Users\\Psychology\\Documents\\ABExperiment\\MemoryStudy\\resources\\JPG\\arugula.jpg,C:\\Users\\Psychology\\Documents\\ABExperiment\\MemoryStudy\\resources\\JPG\\,0,54,54,54,,,,,,,38.45258979999926,None,1,0.2838982999965083,38.45258979999926,None,38.45258979999926,None,test,001,2022-06-22_09h29.36.677,MemoryStudy,2022.1.4,59.91044587059091,
Mem,1,beaver.jpg,P,P,JPG\,beaver,C:\\Users\\Psychology\\Documents\\ABExperiment\\MemoryStudy\\resources\\JPG\\beaver.jpg,C:\\Users\\Psychology\\Documents\\ABExperiment\\MemoryStudy\\resources\\JPG\\,0,55,55,55,,,,,,,38.770581000018865,None,1,0.30207470001187176,38.770581000018865,None,38.770581000018865,None,test,001,2022-06-22_09h29.36.677,MemoryStudy,2022.1.4,59.91044587059091,
Mem,1,snowglobe.jpg,P,P,JPG\,snowglobe,C:\\Users\\Psychology\\Documents\\ABExperiment\\MemoryStudy\\resources\\JPG\\snowglobe.jpg,C:\\Users\\Psychology\\Documents\\ABExperiment\\MemoryStudy\\resources\\JPG\\,0,56,56,56,,,,,,,39.230398500018055,None,1,0.23546180000994354,39.230398500018055,None,39.230398500018055,None,test,001,2022-06-22_09h29.36.677,MemoryStudy,2022.1.4,59.91044587059091,
Mem,1,bullet.jpg,P,P,JPG\,bullet,C:\\Users\\Psychology\\Documents\\ABExperiment\\MemoryStudy\\resources\\JPG\\bullet.jpg,C:\\Users\\Psychology\\Documents\\ABExperiment\\MemoryStudy\\resources\\JPG\\,0,57,57,57,,,,,,,39.48383900002227,None,1,0.34958239999832585,39.48383900002227,None,39.48383900002227,None,test,001,2022-06-22_09h29.36.677,MemoryStudy,2022.1.4,59.91044587059091,
Mem,1,cactus.jpg,P,P,JPG\,cactus,C:\\Users\\Psychology\\Documents\\ABExperiment\\MemoryStudy\\resources\\JPG\\cactus.jpg,C:\\Users\\Psychology\\Documents\\ABExperiment\\MemoryStudy\\resources\\JPG\\,0,58,58,58,,,,,,,39.85036680000485,None,1,0.3903584000072442,39.85036680000485,None,39.85036680000485,None,test,001,2022-06-22_09h29.36.677,MemoryStudy,2022.1.4,59.91044587059091,
Mem,1,cow.jpg,P,P,JPG\,cow,C:\\Users\\Psychology\\Documents\\ABExperiment\\MemoryStudy\\resources\\JPG\\cow.jpg,C:\\Users\\Psychology\\Documents\\ABExperiment\\MemoryStudy\\resources\\JPG\\,0,59,59,59,,,,,,,40.26740520002204,None,1,0.34947260000626557,40.26740520002204,None,40.26740520002204,None,test,001,2022-06-22_09h29.36.677,MemoryStudy,2022.1.4,59.91044587059091,
Mem,1,discoball.jpg,P,P,JPG\,discoball,C:\\Users\\Psychology\\Documents\\ABExperiment\\MemoryStudy\\resources\\JPG\\discoball.jpg,C:\\Users\\Psychology\\Documents\\ABExperiment\\MemoryStudy\\resources\\JPG\\,0,60,60,60,,,,,,,40.63440440001432,None,1,0.326064499997301,40.63440440001432,None,40.63440440001432,None,test,001,2022-06-22_09h29.36.677,MemoryStudy,2022.1.4,59.91044587059091,
Mem,1,drumstick.jpg,P,P,JPG\,drumstick,C:\\Users\\Psychology\\Documents\\ABExperiment\\MemoryStudy\\resources\\JPG\\drumstick.jpg,C:\\Users\\Psychology\\Documents\\ABExperiment\\MemoryStudy\\resources\\JPG\\,0,61,61,61,,,,,,,40.98472690000199,None,1,0.3042628999974113,40.98472690000199,None,40.98472690000199,None,test,001,2022-06-22_09h29.36.677,MemoryStudy,2022.1.4,59.91044587059091,
Mem,1,fingerprint.jpg,P,P,JPG\,fingerprint,C:\\Users\\Psychology\\Documents\\ABExperiment\\MemoryStudy\\resources\\JPG\\fingerprint.jpg,C:\\Users\\Psychology\\Documents\\ABExperiment\\MemoryStudy\\resources\\JPG\\,0,62,62,62,,,,,,,41.321732900018105,None,1,0.3352208000142127,41.321732900018105,None,41.321732900018105,None,test,001,2022-06-22_09h29.36.677,MemoryStudy,2022.1.4,59.91044587059091,
Mem,1,hockeystick.jpg,P,P,JPG\,hockeystick,C:\\Users\\Psychology\\Documents\\ABExperiment\\MemoryStudy\\resources\\JPG\\hockeystick.jpg,C:\\Users\\Psychology\\Documents\\ABExperiment\\MemoryStudy\\resources\\JPG\\,0,63,63,63,,,,,,,41.687891600013245,None,1,0.3371530000003986,41.687891600013245,None,41.687891600013245,None,test,001,2022-06-22_09h29.36.677,MemoryStudy,2022.1.4,59.91044587059091,
Mem,1,hulahoop.jpg,P,P,JPG\,hulahoop,C:\\Users\\Psychology\\Documents\\ABExperiment\\MemoryStudy\\resources\\JPG\\hulahoop.jpg,C:\\Users\\Psychology\\Documents\\ABExperiment\\MemoryStudy\\resources\\JPG\\,0,64,64,64,,,,,,,42.05555620000814,None,1,0.3053533999773208,42.05555620000814,None,42.05555620000814,None,test,001,2022-06-22_09h29.36.677,MemoryStudy,2022.1.4,59.91044587059091,
Mem,1,ladybug03.jpg,P,P,JPG\,ladybug03,C:\\Users\\Psychology\\Documents\\ABExperiment\\MemoryStudy\\resources\\JPG\\ladybug03.jpg,C:\\Users\\Psychology\\Documents\\ABExperiment\\MemoryStudy\\resources\\JPG\\,0,65,65,65,,,,,,,42.3892434000154,None,1,0.28404140000930056,42.3892434000154,None,42.3892434000154,None,test,001,2022-06-22_09h29.36.677,MemoryStudy,2022.1.4,59.91044587059091,
Mem,1,magneticcompass.jpg,P,P,JPG\,magneticcompass,C:\\Users\\Psychology\\Documents\\ABExperiment\\MemoryStudy\\resources\\JPG\\magneticcompass.jpg,C:\\Users\\Psychology\\Documents\\ABExperiment\\MemoryStudy\\resources\\JPG\\,0,66,66,66,,,,,,,42.70308040000964,None,1,0.3134126999939326,42.70308040000964,None,42.70308040000964,None,test,001,2022-06-22_09h29.36.677,MemoryStudy,2022.1.4,59.91044587059091,
Mem,1,moose.jpg,P,P,JPG\,moose,C:\\Users\\Psychology\\Documents\\ABExperiment\\MemoryStudy\\resources\\JPG\\moose.jpg,C:\\Users\\Psychology\\Documents\\ABExperiment\\MemoryStudy\\resources\\JPG\\,0,67,67,67,,,,,,,43.04073810001137,None,1,0.3039079000009224,43.04073810001137,None,43.04073810001137,None,test,001,2022-06-22_09h29.36.677,MemoryStudy,2022.1.4,59.91044587059091,
Mem,1,peacock.jpg,P,P,JPG\,peacock,C:\\Users\\Psychology\\Documents\\ABExperiment\\MemoryStudy\\resources\\JPG\\peacock.jpg,C:\\Users\\Psychology\\Documents\\ABExperiment\\MemoryStudy\\resources\\JPG\\,0,68,68,68,,,,,,,43.37414530001115,None,1,0.2983558000123594,43.37414530001115,None,43.37414530001115,None,test,001,2022-06-22_09h29.36.677,MemoryStudy,2022.1.4,59.91044587059091,
Mem,1,rooster.jpg,P,P,JPG\,rooster,C:\\Users\\Psychology\\Documents\\ABExperiment\\MemoryStudy\\resources\\JPG\\rooster.jpg,C:\\Users\\Psychology\\Documents\\ABExperiment\\MemoryStudy\\resources\\JPG\\,0,69,69,69,,,,,,,43.70750280001084,None,1,0.2852807000163011,43.70750280001084,None,43.70750280001084,None,test,001,2022-06-22_09h29.36.677,MemoryStudy,2022.1.4,59.91044587059091,
Mem,1,sandcastle.jpg,P,P,JPG\,sandcastle,C:\\Users\\Psychology\\Documents\\ABExperiment\\MemoryStudy\\resources\\JPG\\sandcastle.jpg,C:\\Users\\Psychology\\Documents\\ABExperiment\\MemoryStudy\\resources\\JPG\\,0,70,70,70,,,,,,,44.02199480001582,None,1,0.29887920001056045,44.02199480001582,None,44.02199480001582,None,test,001,2022-06-22_09h29.36.677,MemoryStudy,2022.1.4,59.91044587059091,
Mem,1,sheep.jpg,P,P,JPG\,sheep,C:\\Users\\Psychology\\Documents\\ABExperiment\\MemoryStudy\\resources\\JPG\\sheep.jpg,C:\\Users\\Psychology\\Documents\\ABExperiment\\MemoryStudy\\resources\\JPG\\,0,71,71,71,,,,,,,44.33945200001472,None,1,0.3414700000139419,44.33945200001472,None,44.33945200001472,None,test,001,2022-06-22_09h29.36.677,MemoryStudy,2022.1.4,59.91044587059091,
Mem,1,spiderweb.jpg,P,P,JPG\,spiderweb,C:\\Users\\Psychology\\Documents\\ABExperiment\\MemoryStudy\\resources\\JPG\\spiderweb.jpg,C:\\Users\\Psychology\\Documents\\ABExperiment\\MemoryStudy\\resources\\JPG\\,0,72,72,72,,,,,,,44.70595100001083,None,1,0.3279763000027742,44.70595100001083,None,44.70595100001083,None,test,001,2022-06-22_09h29.36.677,MemoryStudy,2022.1.4,59.91044587059091,
Mem,1,trampoline.jpg,P,P,JPG\,trampoline,C:\\Users\\Psychology\\Documents\\ABExperiment\\MemoryStudy\\resources\\JPG\\trampoline.jpg,C:\\Users\\Psychology\\Documents\\ABExperiment\\MemoryStudy\\resources\\JPG\\,0,73,73,73,,,,,,,45.05643590001273,None,1,0.3282771999947727,45.05643590001273,None,45.05643590001273,None,test,001,2022-06-22_09h29.36.677,MemoryStudy,2022.1.4,59.91044587059091,
Mem,1,trophy01.jpg,P,P,JPG\,trophy01,C:\\Users\\Psychology\\Documents\\ABExperiment\\MemoryStudy\\resources\\JPG\\trophy01.jpg,C:\\Users\\Psychology\\Documents\\ABExperiment\\MemoryStudy\\resources\\JPG\\,0,74,74,74,,,,,,,45.40673370001605,None,1,0.29038150000269525,45.40673370001605,None,45.40673370001605,None,test,001,2022-06-22_09h29.36.677,MemoryStudy,2022.1.4,59.91044587059091,
Mem,1,windmill.jpg,P,P,JPG\,windmill,C:\\Users\\Psychology\\Documents\\ABExperiment\\MemoryStudy\\resources\\JPG\\windmill.jpg,C:\\Users\\Psychology\\Documents\\ABExperiment\\MemoryStudy\\resources\\JPG\\,0,75,75,75,,,,,,,45.723531199997524,None,1,0.3089392999827396,45.723531199997524,None,45.723531199997524,None,test,001,2022-06-22_09h29.36.677,MemoryStudy,2022.1.4,59.91044587059091,
Mem,1,arrow02.jpg,P,P,JPG\,arrow02,C:\\Users\\Psychology\\Documents\\ABExperiment\\MemoryStudy\\resources\\JPG\\arrow02.jpg,C:\\Users\\Psychology\\Documents\\ABExperiment\\MemoryStudy\\resources\\JPG\\,0,76,76,76,,,,,,,46.0571956000058,None,1,0.31142099999124184,46.0571956000058,None,46.0571956000058,None,test,001,2022-06-22_09h29.36.677,MemoryStudy,2022.1.4,59.91044587059091,
Mem,1,birdhouse.jpg,P,P,JPG\,birdhouse,C:\\Users\\Psychology\\Documents\\ABExperiment\\MemoryStudy\\resources\\JPG\\birdhouse.jpg,C:\\Users\\Psychology\\Documents\\ABExperiment\\MemoryStudy\\resources\\JPG\\,0,77,77,77,,,,,,,46.39107220000005,None,1,0.28976599997258745,46.39107220000005,None,46.39107220000005,None,test,001,2022-06-22_09h29.36.677,MemoryStudy,2022.1.4,59.91044587059091,
Mem,1,bridge.jpg,P,P,JPG\,bridge,C:\\Users\\Psychology\\Documents\\ABExperiment\\MemoryStudy\\resources\\JPG\\bridge.jpg,C:\\Users\\Psychology\\Documents\\ABExperiment\\MemoryStudy\\resources\\JPG\\,0,78,78,78,,,,,,,46.710730999999214,None,1,0.29776759998640046,46.710730999999214,None,46.710730999999214,None,test,001,2022-06-22_09h29.36.677,MemoryStudy,2022.1.4,59.91044587059091,
Mem,1,cashregister01.jpg,P,P,JPG\,cashregister01,C:\\Users\\Psychology\\Documents\\ABExperiment\\MemoryStudy\\resources\\JPG\\cashregister01.jpg,C:\\Users\\Psychology\\Documents\\ABExperiment\\MemoryStudy\\resources\\JPG\\,0,79,79,79,,,,,,,47.040790700004436,None,1,0.30375829999684356,47.040790700004436,None,47.040790700004436,None,test,001,2022-06-22_09h29.36.677,MemoryStudy,2022.1.4,59.91044587059091,
Mem,1,dartboard.jpg,P,P,JPG\,dartboard,C:\\Users\\Psychology\\Documents\\ABExperiment\\MemoryStudy\\resources\\JPG\\dartboard.jpg,C:\\Users\\Psychology\\Documents\\ABExperiment\\MemoryStudy\\resources\\JPG\\,0,80,80,80,,,,,,,47.377487000019755,None,1,0.30316619999939576,47.377487000019755,None,47.377487000019755,None,test,001,2022-06-22_09h29.36.677,MemoryStudy,2022.1.4,59.91044587059091,
Mem,1,dreamcatcher.jpg,P,P,JPG\,dreamcatcher,C:\\Users\\Psychology\\Documents\\ABExperiment\\MemoryStudy\\resources\\JPG\\dreamcatcher.jpg,C:\\Users\\Psychology\\Documents\\ABExperiment\\MemoryStudy\\resources\\JPG\\,0,81,81,81,,,,,,,47.71110519999638,None,1,0.3134470999939367,47.71110519999638,None,47.71110519999638,None,test,001,2022-06-22_09h29.36.677,MemoryStudy,2022.1.4,59.91044587059091,
Mem,1,escalator.jpg,P,P,JPG\,escalator,C:\\Users\\Psychology\\Documents\\ABExperiment\\MemoryStudy\\resources\\JPG\\escalator.jpg,C:\\Users\\Psychology\\Documents\\ABExperiment\\MemoryStudy\\resources\\JPG\\,0,82,82,82,,,,,,,48.04443330000504,None,1,0.3241507999773603,48.04443330000504,None,48.04443330000504,None,test,001,2022-06-22_09h29.36.677,MemoryStudy,2022.1.4,59.91044587059091,
Mem,1,firehydrant.jpg,P,P,JPG\,firehydrant,C:\\Users\\Psychology\\Documents\\ABExperiment\\MemoryStudy\\resources\\JPG\\firehydrant.jpg,C:\\Users\\Psychology\\Documents\\ABExperiment\\MemoryStudy\\resources\\JPG\\,0,83,83,83,,,,,,,48.39505300001474,None,1,0.30145859997719526,48.39505300001474,None,48.39505300001474,None,test,001,2022-06-22_09h29.36.677,MemoryStudy,2022.1.4,59.91044587059091,
Mem,1,greatwhiteshark.jpg,P,P,JPG\,greatwhiteshark,C:\\Users\\Psychology\\Documents\\ABExperiment\\MemoryStudy\\resources\\JPG\\greatwhiteshark.jpg,C:\\Users\\Psychology\\Documents\\ABExperiment\\MemoryStudy\\resources\\JPG\\,0,84,84,84,,,,,,,48.72606869999436,None,1,0.29942799999844283,48.72606869999436,None,48.72606869999436,None,test,001,2022-06-22_09h29.36.677,MemoryStudy,2022.1.4,59.91044587059091,
Mem,1,helicopter.jpg,P,P,JPG\,helicopter,C:\\Users\\Psychology\\Documents\\ABExperiment\\MemoryStudy\\resources\\JPG\\helicopter.jpg,C:\\Users\\Psychology\\Documents\\ABExperiment\\MemoryStudy\\resources\\JPG\\,0,85,85,85,,,,,,,49.042929899995215,None,1,0.30122309998841956,49.042929899995215,None,49.042929899995215,None,test,001,2022-06-22_09h29.36.677,MemoryStudy,2022.1.4,59.91044587059091,
Mem,1,smokingsign.jpg,P,P,JPG\,smokingsign,C:\\Users\\Psychology\\Documents\\ABExperiment\\MemoryStudy\\resources\\JPG\\smokingsign.jpg,C:\\Users\\Psychology\\Documents\\ABExperiment\\MemoryStudy\\resources\\JPG\\,0,86,86,86,,,,,,,49.376265600003535,None,1,0.29641609999816865,49.376265600003535,None,49.376265600003535,None,test,001,2022-06-22_09h29.36.677,MemoryStudy,2022.1.4,59.91044587059091,
Mem,1,barnowl.jpg,P,P,JPG\,barnowl,C:\\Users\\Psychology\\Documents\\ABExperiment\\MemoryStudy\\resources\\JPG\\barnowl.jpg,C:\\Users\\Psychology\\Documents\\ABExperiment\\MemoryStudy\\resources\\JPG\\,0,87,87,87,,,,,,,49.78798389999429,None,1,0.18050280000898056,49.78798389999429,None,49.78798389999429,None,test,001,2022-06-22_09h29.36.677,MemoryStudy,2022.1.4,59.91044587059091,
Mem,1,pig.jpg,P,P,JPG\,pig,C:\\Users\\Psychology\\Documents\\ABExperiment\\MemoryStudy\\resources\\JPG\\pig.jpg,C:\\Users\\Psychology\\Documents\\ABExperiment\\MemoryStudy\\resources\\JPG\\,0,88,88,88,,,,,,,49.99361289999797,None,1,0.3116592000005767,49.99361289999797,None,49.99361289999797,None,test,001,2022-06-22_09h29.36.677,MemoryStudy,2022.1.4,59.91044587059091,
Mem,1,polarbear.jpg,P,P,JPG\,polarbear,C:\\Users\\Psychology\\Documents\\ABExperiment\\MemoryStudy\\resources\\JPG\\polarbear.jpg,C:\\Users\\Psychology\\Documents\\ABExperiment\\MemoryStudy\\resources\\JPG\\,0,89,89,89,,,,,,,50.33005499999854,None,1,0.2781665999791585,50.33005499999854,None,50.33005499999854,None,test,001,2022-06-22_09h29.36.677,MemoryStudy,2022.1.4,59.91044587059091,
Mem,1,sandbarshark.jpg,P,P,JPG\,sandbarshark,C:\\Users\\Psychology\\Documents\\ABExperiment\\MemoryStudy\\resources\\JPG\\sandbarshark.jpg,C:\\Users\\Psychology\\Documents\\ABExperiment\\MemoryStudy\\resources\\JPG\\,0,90,90,90,,,,,,,50.708968399994774,None,1,0.20384639999247156,50.708968399994774,None,50.708968399994774,None,test,001,2022-06-22_09h29.36.677,MemoryStudy,2022.1.4,59.91044587059091,
Mem,1,telescope.jpg,P,P,JPG\,telescope,C:\\Users\\Psychology\\Documents\\ABExperiment\\MemoryStudy\\resources\\JPG\\telescope.jpg,C:\\Users\\Psychology\\Documents\\ABExperiment\\MemoryStudy\\resources\\JPG\\,0,91,91,91,,,,,,,50.94464329999755,None,1,0.28826630002004094,50.94464329999755,None,50.94464329999755,None,test,001,2022-06-22_09h29.36.677,MemoryStudy,2022.1.4,59.91044587059091,
Mem,1,tent.jpg,P,P,JPG\,tent,C:\\Users\\Psychology\\Documents\\ABExperiment\\MemoryStudy\\resources\\JPG\\tent.jpg,C:\\Users\\Psychology\\Documents\\ABExperiment\\MemoryStudy\\resources\\JPG\\,0,92,92,92,,,,,,,51.264443899999605,None,1,0.3042704999970738,51.264443899999605,None,51.264443899999605,None,test,001,2022-06-22_09h29.36.677,MemoryStudy,2022.1.4,59.91044587059091,
Mem,1,toilet.jpg,P,P,JPG\,toilet,C:\\Users\\Psychology\\Documents\\ABExperiment\\MemoryStudy\\resources\\JPG\\toilet.jpg,C:\\Users\\Psychology\\Documents\\ABExperiment\\MemoryStudy\\resources\\JPG\\,0,93,93,93,,,,,,,51.595433600014076,None,1,0.278458100015996,51.595433600014076,None,51.595433600014076,None,test,001,2022-06-22_09h29.36.677,MemoryStudy,2022.1.4,59.91044587059091,
Mem,1,tricycle.jpg,P,P,JPG\,tricycle,C:\\Users\\Psychology\\Documents\\ABExperiment\\MemoryStudy\\resources\\JPG\\tricycle.jpg,C:\\Users\\Psychology\\Documents\\ABExperiment\\MemoryStudy\\resources\\JPG\\,0,94,94,94,,,,,,,51.895825600018725,None,1,0.320563499990385,51.895825600018725,None,51.895825600018725,None,test,001,2022-06-22_09h29.36.677,MemoryStudy,2022.1.4,59.91044587059091,
Mem,1,rubikcube.jpg,P,P,JPG\,rubikcube,C:\\Users\\Psychology\\Documents\\ABExperiment\\MemoryStudy\\resources\\JPG\\rubikcube.jpg,C:\\Users\\Psychology\\Documents\\ABExperiment\\MemoryStudy\\resources\\JPG\\,0,95,95,95,,,,,,,52.246194100007415,None,1,0.3070636999909766,52.246194100007415,None,52.246194100007415,None,test,001,2022-06-22_09h29.36.677,MemoryStudy,2022.1.4,59.91044587059091,
Mem,1,anchor.jpg,P,P,JPG\,anchor,C:\\Users\\Psychology\\Documents\\ABExperiment\\MemoryStudy\\resources\\JPG\\anchor.jpg,C:\\Users\\Psychology\\Documents\\ABExperiment\\MemoryStudy\\resources\\JPG\\,0,96,96,96,,,,,,,52.57986329999403,None,1,0.3403808000148274,52.57986329999403,None,52.57986329999403,None,test,001,2022-06-22_09h29.36.677,MemoryStudy,2022.1.4,59.91044587059091,
Mem,1,beerbottle.jpg,P,P,JPG\,beerbottle,C:\\Users\\Psychology\\Documents\\ABExperiment\\MemoryStudy\\resources\\JPG\\beerbottle.jpg,C:\\Users\\Psychology\\Documents\\ABExperiment\\MemoryStudy\\resources\\JPG\\,0,97,97,97,,,,,,,52.94682539999485,None,1,0.3018645000120159,52.94682539999485,None,52.94682539999485,None,test,001,2022-06-22_09h29.36.677,MemoryStudy,2022.1.4,59.91044587059091,
Mem,1,bowtie.jpg,P,P,JPG\,bowtie,C:\\Users\\Psychology\\Documents\\ABExperiment\\MemoryStudy\\resources\\JPG\\bowtie.jpg,C:\\Users\\Psychology\\Documents\\ABExperiment\\MemoryStudy\\resources\\JPG\\,0,98,98,98,,,,,,,53.28041800000938,None,1,0.31260149998706765,53.28041800000938,None,53.28041800000938,None,test,001,2022-06-22_09h29.36.677,MemoryStudy,2022.1.4,59.91044587059091,
Mem,1,cannon.jpg,P,P,JPG\,cannon,C:\\Users\\Psychology\\Documents\\ABExperiment\\MemoryStudy\\resources\\JPG\\cannon.jpg,C:\\Users\\Psychology\\Documents\\ABExperiment\\MemoryStudy\\resources\\JPG\\,0,99,99,99,,,,,,,53.61400770000182,None,1,0.3160673000093084,53.61400770000182,None,53.61400770000182,None,test,001,2022-06-22_09h29.36.677,MemoryStudy,2022.1.4,59.91044587059091,
Mem,1,cat.jpg,P,P,JPG\,cat,C:\\Users\\Psychology\\Documents\\ABExperiment\\MemoryStudy\\resources\\JPG\\cat.jpg,C:\\Users\\Psychology\\Documents\\ABExperiment\\MemoryStudy\\resources\\JPG\\,0,100,100,100,,,,,,,53.947827900003176,None,1,0.32453260000329465,53.947827900003176,None,53.947827900003176,None,test,001,2022-06-22_09h29.36.677,MemoryStudy,2022.1.4,59.91044587059091,
Mem,1,chair.jpg,P,P,JPG\,chair,C:\\Users\\Psychology\\Documents\\ABExperiment\\MemoryStudy\\resources\\JPG\\chair.jpg,C:\\Users\\Psychology\\Documents\\ABExperiment\\MemoryStudy\\resources\\JPG\\,0,101,101,101,,,,,,,54.30280850001145,None,1,0.2905771999794524,54.30280850001145,None,54.30280850001145,None,test,001,2022-06-22_09h29.36.677,MemoryStudy,2022.1.4,59.91044587059091,
Mem,1,cross01.jpg,P,P,JPG\,cross01,C:\\Users\\Psychology\\Documents\\ABExperiment\\MemoryStudy\\resources\\JPG\\cross01.jpg,C:\\Users\\Psychology\\Documents\\ABExperiment\\MemoryStudy\\resources\\JPG\\,0,102,102,102,,,,,,,54.61999760000617,None,1,0.30039469999610446,54.61999760000617,None,54.61999760000617,None,test,001,2022-06-22_09h29.36.677,MemoryStudy,2022.1.4,59.91044587059091,
Mem,1,englishcucumber.jpg,P,P,JPG\,englishcucumber,C:\\Users\\Psychology\\Documents\\ABExperiment\\MemoryStudy\\resources\\JPG\\englishcucumber.jpg,C:\\Users\\Psychology\\Documents\\ABExperiment\\MemoryStudy\\resources\\JPG\\,0,103,103,103,,,,,,,54.953316600003745,None,1,0.27198999997926876,54.953316600003745,None,54.953316600003745,None,test,001,2022-06-22_09h29.36.677,MemoryStudy,2022.1.4,59.91044587059091,
Mem,1,frisbee.jpg,P,P,JPG\,frisbee,C:\\Users\\Psychology\\Documents\\ABExperiment\\MemoryStudy\\resources\\JPG\\frisbee.jpg,C:\\Users\\Psychology\\Documents\\ABExperiment\\MemoryStudy\\resources\\JPG\\,0,104,104,104,,,,,,,55.25008600001456,None,1,0.2620943000074476,55.25008600001456,None,55.25008600001456,None,test,001,2022-06-22_09h29.36.677,MemoryStudy,2022.1.4,59.91044587059091,
Mem,1,granolabar01.jpg,P,P,JPG\,granolabar01,C:\\Users\\Psychology\\Documents\\ABExperiment\\MemoryStudy\\resources\\JPG\\granolabar01.jpg,C:\\Users\\Psychology\\Documents\\ABExperiment\\MemoryStudy\\resources\\JPG\\,0,105,105,105,,,,,,,55.537489900016226,None,1,0.2956378999806475,55.537489900016226,None,55.537489900016226,None,test,001,2022-06-22_09h29.36.677,MemoryStudy,2022.1.4,59.91044587059091,
Mem,1,jeans01.jpg,P,P,JPG\,jeans01,C:\\Users\\Psychology\\Documents\\ABExperiment\\MemoryStudy\\resources\\JPG\\jeans01.jpg,C:\\Users\\Psychology\\Documents\\ABExperiment\\MemoryStudy\\resources\\JPG\\,0,106,106,106,,,,,,,55.84960830002092,None,1,0.295121899980586,55.84960830002092,None,55.84960830002092,None,test,001,2022-06-22_09h29.36.677,MemoryStudy,2022.1.4,59.91044587059091,
Mem,1,jeep.jpg,P,P,JPG\,jeep,C:\\Users\\Psychology\\Documents\\ABExperiment\\MemoryStudy\\resources\\JPG\\jeep.jpg,C:\\Users\\Psychology\\Documents\\ABExperiment\\MemoryStudy\\resources\\JPG\\,0,107,107,107,,,,,,,56.166519000020344,None,1,0.28996680001728237,56.166519000020344,None,56.166519000020344,None,test,001,2022-06-22_09h29.36.677,MemoryStudy,2022.1.4,59.91044587059091,
Mem,1,knee.jpg,P,P,JPG\,knee,C:\\Users\\Psychology\\Documents\\ABExperiment\\MemoryStudy\\resources\\JPG\\knee.jpg,C:\\Users\\Psychology\\Documents\\ABExperiment\\MemoryStudy\\resources\\JPG\\,0,108,108,108,,,,,,,56.48335520000546,None,1,0.26937999998335727,56.48335520000546,None,56.48335520000546,None,test,001,2022-06-22_09h29.36.677,MemoryStudy,2022.1.4,59.91044587059091,
Mem,1,lighthouse.jpg,P,P,JPG\,lighthouse,C:\\Users\\Psychology\\Documents\\ABExperiment\\MemoryStudy\\resources\\JPG\\lighthouse.jpg,C:\\Users\\Psychology\\Documents\\ABExperiment\\MemoryStudy\\resources\\JPG\\,0,109,109,109,,,,,,,56.78392300000996,None,1,0.2887870999984443,56.78392300000996,None,56.78392300000996,None,test,001,2022-06-22_09h29.36.677,MemoryStudy,2022.1.4,59.91044587059091,
Mem,1,lion.jpg,P,P,JPG\,lion,C:\\Users\\Psychology\\Documents\\ABExperiment\\MemoryStudy\\resources\\JPG\\lion.jpg,C:\\Users\\Psychology\\Documents\\ABExperiment\\MemoryStudy\\resources\\JPG\\,0,110,110,110,,,,,,,57.10074710001936,None,1,0.2837737000081688,57.10074710001936,None,57.10074710001936,None,test,001,2022-06-22_09h29.36.677,MemoryStudy,2022.1.4,59.91044587059091,
Mem,1,microphone01.jpg,P,P,JPG\,microphone01,C:\\Users\\Psychology\\Documents\\ABExperiment\\MemoryStudy\\resources\\JPG\\microphone01.jpg,C:\\Users\\Psychology\\Documents\\ABExperiment\\MemoryStudy\\resources\\JPG\\,0,111,111,111,,,,,,,57.40109780000057,None,1,0.2952264999912586,57.40109780000057,None,57.40109780000057,None,test,001,2022-06-22_09h29.36.677,MemoryStudy,2022.1.4,59.91044587059091,
