TrialType,Lag,Image,T1PA,T2PA,PicFolder,Picture,FullPathName,FilePath,trials.thisRepN,trials.thisTrialN,trials.thisN,trials.thisIndex,text.started,text.stopped,End_Instructions.keys,End_Instructions.rt,End_Instructions.started,End_Instructions.stopped,MemTest.started,MemTest.stopped,MemResponse.keys,MemResponse.rt,MemResponse.started,MemResponse.stopped,Display.started,Display.stopped,participant,session,date,expName,psychopyVersion,frameRate,
,,,,,,,,,,,,,11.892679200012935,None,space,2.0802146999922115,11.892679200012935,None,,,,,,,,,test,001,2022-06-22_09h41.13.217,MemoryStudy,2022.1.4,59.96551983231222,
Mem,1,giraffe.jpg,P,P,JPG\,giraffe,C:\\Users\\Psychology\\Documents\\ABExperiment\\MemoryStudy\\resources\\JPG\\giraffe.jpg,C:\\Users\\Psychology\\Documents\\ABExperiment\\MemoryStudy\\resources\\JPG\\,0,0,0,0,,,,,,,14.175192299997434,None,1,0.7165863999980502,14.175192299997434,None,14.175192299997434,None,test,001,2022-06-22_09h41.13.217,MemoryStudy,2022.1.4,59.96551983231222,
Mem,1,greathornowl.jpg,P,P,JPG\,greathornowl,C:\\Users\\Psychology\\Documents\\ABExperiment\\MemoryStudy\\resources\\JPG\\greathornowl.jpg,C:\\Users\\Psychology\\Documents\\ABExperiment\\MemoryStudy\\resources\\JPG\\,0,1,1,1,,,,,,,14.930080799997086,None,1,0.2588523000013083,14.930080799997086,None,14.930080799997086,None,test,001,2022-06-22_09h41.13.217,MemoryStudy,2022.1.4,59.96551983231222,
Mem,1,candle08b.jpg,P,P,JPG\,candle08b,C:\\Users\\Psychology\\Documents\\ABExperiment\\MemoryStudy\\resources\\JPG\\candle08b.jpg,C:\\Users\\Psychology\\Documents\\ABExperiment\\MemoryStudy\\resources\\JPG\\,0,2,2,2,,,,,,,15.317538000002969,None,1,0.08586339998873882,15.317538000002969,None,15.317538000002969,None,test,001,2022-06-22_09h41.13.217,MemoryStudy,2022.1.4,59.96551983231222,
Mem,1,horse.jpg,P,P,JPG\,horse,C:\\Users\\Psychology\\Documents\\ABExperiment\\MemoryStudy\\resources\\JPG\\horse.jpg,C:\\Users\\Psychology\\Documents\\ABExperiment\\MemoryStudy\\resources\\JPG\\,0,3,3,3,,,,,,,15.48708770002122,None,1,0.14058839998324402,15.48708770002122,None,15.48708770002122,None,test,001,2022-06-22_09h41.13.217,MemoryStudy,2022.1.4,59.96551983231222,
Mem,1,snowman.jpg,P,P,JPG\,snowman,C:\\Users\\Psychology\\Documents\\ABExperiment\\MemoryStudy\\resources\\JPG\\snowman.jpg,C:\\Users\\Psychology\\Documents\\ABExperiment\\MemoryStudy\\resources\\JPG\\,0,4,4,4,,,,,,,15.66016500000842,None,1,0.20752479997463524,15.66016500000842,None,15.66016500000842,None,test,001,2022-06-22_09h41.13.217,MemoryStudy,2022.1.4,59.96551983231222,
Mem,1,squirrel.jpg,P,P,JPG\,squirrel,C:\\Users\\Psychology\\Documents\\ABExperiment\\MemoryStudy\\resources\\JPG\\squirrel.jpg,C:\\Users\\Psychology\\Documents\\ABExperiment\\MemoryStudy\\resources\\JPG\\,0,5,5,5,,,,,,,15.890719799994258,None,1,0.20037029997911304,15.890719799994258,None,15.890719799994258,None,test,001,2022-06-22_09h41.13.217,MemoryStudy,2022.1.4,59.96551983231222,
Mem,1,firtree.jpg,P,P,JPG\,firtree,C:\\Users\\Psychology\\Documents\\ABExperiment\\MemoryStudy\\resources\\JPG\\firtree.jpg,C:\\Users\\Psychology\\Documents\\ABExperiment\\MemoryStudy\\resources\\JPG\\,0,6,6,6,,,,,,,16.225021399994148,None,1,0.09863660001428798,16.225021399994148,None,16.225021399994148,None,test,001,2022-06-22_09h41.13.217,MemoryStudy,2022.1.4,59.96551983231222,
Mem,1,bowlingball.jpg,P,P,JPG\,bowlingball,C:\\Users\\Psychology\\Documents\\ABExperiment\\MemoryStudy\\resources\\JPG\\bowlingball.jpg,C:\\Users\\Psychology\\Documents\\ABExperiment\\MemoryStudy\\resources\\JPG\\,0,7,7,7,,,,,,,16.340646700002253,None,1,0.19921190000604838,16.340646700002253,None,16.340646700002253,None,test,001,2022-06-22_09h41.13.217,MemoryStudy,2022.1.4,59.96551983231222,
Mem,1,bowlingpin.jpg,P,P,JPG\,bowlingpin,C:\\Users\\Psychology\\Documents\\ABExperiment\\MemoryStudy\\resources\\JPG\\bowlingpin.jpg,C:\\Users\\Psychology\\Documents\\ABExperiment\\MemoryStudy\\resources\\JPG\\,0,8,8,8,,,,,,,16.560883099999046,None,1,0.1628614000219386,16.560883099999046,None,16.560883099999046,None,test,001,2022-06-22_09h41.13.217,MemoryStudy,2022.1.4,59.96551983231222,
Mem,1,candycane01a.jpg,P,P,JPG\,candycane01a,C:\\Users\\Psychology\\Documents\\ABExperiment\\MemoryStudy\\resources\\JPG\\candycane01a.jpg,C:\\Users\\Psychology\\Documents\\ABExperiment\\MemoryStudy\\resources\\JPG\\,0,9,9,9,,,,,,,16.744279600010486,None,1,0.1874316000030376,16.744279600010486,None,16.744279600010486,None,test,001,2022-06-22_09h41.13.217,MemoryStudy,2022.1.4,59.96551983231222,
Mem,1,dolphin01.jpg,P,P,JPG\,dolphin01,C:\\Users\\Psychology\\Documents\\ABExperiment\\MemoryStudy\\resources\\JPG\\dolphin01.jpg,C:\\Users\\Psychology\\Documents\\ABExperiment\\MemoryStudy\\resources\\JPG\\,0,10,10,10,,,,,,,16.96133479999844,None,1,0.20176930000889115,16.96133479999844,None,16.96133479999844,None,test,001,2022-06-22_09h41.13.217,MemoryStudy,2022.1.4,59.96551983231222,
Mem,1,dromedary.jpg,P,P,JPG\,dromedary,C:\\Users\\Psychology\\Documents\\ABExperiment\\MemoryStudy\\resources\\JPG\\dromedary.jpg,C:\\Users\\Psychology\\Documents\\ABExperiment\\MemoryStudy\\resources\\JPG\\,0,11,11,11,,,,,,,17.19428880000487,None,1,0.1607097999949474,17.19428880000487,None,17.19428880000487,None,test,001,2022-06-22_09h41.13.217,MemoryStudy,2022.1.4,59.96551983231222,
Mem,1,football.jpg,P,P,JPG\,football,C:\\Users\\Psychology\\Documents\\ABExperiment\\MemoryStudy\\resources\\JPG\\football.jpg,C:\\Users\\Psychology\\Documents\\ABExperiment\\MemoryStudy\\resources\\JPG\\,0,12,12,12,,,,,,,17.37758670002222,None,1,0.17746659999829717,17.37758670002222,None,17.37758670002222,None,test,001,2022-06-22_09h41.13.217,MemoryStudy,2022.1.4,59.96551983231222,
Mem,1,golfball.jpg,P,P,JPG\,golfball,C:\\Users\\Psychology\\Documents\\ABExperiment\\MemoryStudy\\resources\\JPG\\golfball.jpg,C:\\Users\\Psychology\\Documents\\ABExperiment\\MemoryStudy\\resources\\JPG\\,0,13,13,13,,,,,,,17.577832300012233,None,1,0.18520599999465048,17.577832300012233,None,17.577832300012233,None,test,001,2022-06-22_09h41.13.217,MemoryStudy,2022.1.4,59.96551983231222,
Mem,1,guitarcase.jpg,P,P,JPG\,guitarcase,C:\\Users\\Psychology\\Documents\\ABExperiment\\MemoryStudy\\resources\\JPG\\guitarcase.jpg,C:\\Users\\Psychology\\Documents\\ABExperiment\\MemoryStudy\\resources\\JPG\\,0,14,14,14,,,,,,,17.794917599996552,None,1,0.16004430002067238,17.794917599996552,None,17.794917599996552,None,test,001,2022-06-22_09h41.13.217,MemoryStudy,2022.1.4,59.96551983231222,
Mem,1,jellybean.jpg,P,P,JPG\,jellybean,C:\\Users\\Psychology\\Documents\\ABExperiment\\MemoryStudy\\resources\\JPG\\jellybean.jpg,C:\\Users\\Psychology\\Documents\\ABExperiment\\MemoryStudy\\resources\\JPG\\,0,15,15,15,,,,,,,17.97842510000919,None,1,0.16140370001085103,17.97842510000919,None,17.97842510000919,None,test,001,2022-06-22_09h41.13.217,MemoryStudy,2022.1.4,59.96551983231222,
Mem,1,kangaroo.jpg,P,P,JPG\,kangaroo,C:\\Users\\Psychology\\Documents\\ABExperiment\\MemoryStudy\\resources\\JPG\\kangaroo.jpg,C:\\Users\\Psychology\\Documents\\ABExperiment\\MemoryStudy\\resources\\JPG\\,0,16,16,16,,,,,,,18.16179519999423,None,1,0.16136090000509284,18.16179519999423,None,18.16179519999423,None,test,001,2022-06-22_09h41.13.217,MemoryStudy,2022.1.4,59.96551983231222,
Mem,1,kite.jpg,P,P,JPG\,kite,C:\\Users\\Psychology\\Documents\\ABExperiment\\MemoryStudy\\resources\\JPG\\kite.jpg,C:\\Users\\Psychology\\Documents\\ABExperiment\\MemoryStudy\\resources\\JPG\\,0,17,17,17,,,,,,,18.34540360001847,None,1,0.18574019998777658,18.34540360001847,None,18.34540360001847,None,test,001,2022-06-22_09h41.13.217,MemoryStudy,2022.1.4,59.96551983231222,
Mem,1,lightswitch01.jpg,P,P,JPG\,lightswitch01,C:\\Users\\Psychology\\Documents\\ABExperiment\\MemoryStudy\\resources\\JPG\\lightswitch01.jpg,C:\\Users\\Psychology\\Documents\\ABExperiment\\MemoryStudy\\resources\\JPG\\,0,18,18,18,,,,,,,18.562324600003194,None,1,0.14487479999661446,18.562324600003194,None,18.562324600003194,None,test,001,2022-06-22_09h41.13.217,MemoryStudy,2022.1.4,59.96551983231222,
Mem,1,locker.jpg,P,P,JPG\,locker,C:\\Users\\Psychology\\Documents\\ABExperiment\\MemoryStudy\\resources\\JPG\\locker.jpg,C:\\Users\\Psychology\\Documents\\ABExperiment\\MemoryStudy\\resources\\JPG\\,0,19,19,19,,,,,,,18.729051300004357,None,1,0.16316129997721873,18.729051300004357,None,18.729051300004357,None,test,001,2022-06-22_09h41.13.217,MemoryStudy,2022.1.4,59.96551983231222,
Mem,1,mailbox01.jpg,P,P,JPG\,mailbox01,C:\\Users\\Psychology\\Documents\\ABExperiment\\MemoryStudy\\resources\\JPG\\mailbox01.jpg,C:\\Users\\Psychology\\Documents\\ABExperiment\\MemoryStudy\\resources\\JPG\\,0,20,20,20,,,,,,,18.99785559999873,None,1,0.06954470000346191,18.99785559999873,None,18.99785559999873,None,test,001,2022-06-22_09h41.13.217,MemoryStudy,2022.1.4,59.96551983231222,
Mem,1,mailbox02.jpg,P,P,JPG\,mailbox02,C:\\Users\\Psychology\\Documents\\ABExperiment\\MemoryStudy\\resources\\JPG\\mailbox02.jpg,C:\\Users\\Psychology\\Documents\\ABExperiment\\MemoryStudy\\resources\\JPG\\,0,21,21,21,,,,,,,19.097213500004727,None,1,0.16228019999107346,19.097213500004727,None,19.097213500004727,None,test,001,2022-06-22_09h41.13.217,MemoryStudy,2022.1.4,59.96551983231222,
Mem,1,mattress.jpg,P,P,JPG\,mattress,C:\\Users\\Psychology\\Documents\\ABExperiment\\MemoryStudy\\resources\\JPG\\mattress.jpg,C:\\Users\\Psychology\\Documents\\ABExperiment\\MemoryStudy\\resources\\JPG\\,0,22,22,22,,,,,,,19.277387900016038,None,1,0.16612419998273253,19.277387900016038,None,19.277387900016038,None,test,001,2022-06-22_09h41.13.217,MemoryStudy,2022.1.4,59.96551983231222,
Mem,1,pumpkin.jpg,P,P,JPG\,pumpkin,C:\\Users\\Psychology\\Documents\\ABExperiment\\MemoryStudy\\resources\\JPG\\pumpkin.jpg,C:\\Users\\Psychology\\Documents\\ABExperiment\\MemoryStudy\\resources\\JPG\\,0,23,23,23,,,,,,,19.46096789999865,None,1,0.16641679999884218,19.46096789999865,None,19.46096789999865,None,test,001,2022-06-22_09h41.13.217,MemoryStudy,2022.1.4,59.96551983231222,
Mem,1,schoolbus.jpg,P,P,JPG\,schoolbus,C:\\Users\\Psychology\\Documents\\ABExperiment\\MemoryStudy\\resources\\JPG\\schoolbus.jpg,C:\\Users\\Psychology\\Documents\\ABExperiment\\MemoryStudy\\resources\\JPG\\,0,24,24,24,,,,,,,19.644733299996005,None,1,0.15865019999910146,19.644733299996005,None,19.644733299996005,None,test,001,2022-06-22_09h41.13.217,MemoryStudy,2022.1.4,59.96551983231222,
Mem,1,skateboard.jpg,P,P,JPG\,skateboard,C:\\Users\\Psychology\\Documents\\ABExperiment\\MemoryStudy\\resources\\JPG\\skateboard.jpg,C:\\Users\\Psychology\\Documents\\ABExperiment\\MemoryStudy\\resources\\JPG\\,0,25,25,25,,,,,,,19.832718899997417,None,1,0.13981290001538582,19.832718899997417,None,19.832718899997417,None,test,001,2022-06-22_09h41.13.217,MemoryStudy,2022.1.4,59.96551983231222,
Mem,1,soccerball.jpg,P,P,JPG\,soccerball,C:\\Users\\Psychology\\Documents\\ABExperiment\\MemoryStudy\\resources\\JPG\\soccerball.jpg,C:\\Users\\Psychology\\Documents\\ABExperiment\\MemoryStudy\\resources\\JPG\\,0,26,26,26,,,,,,,19.996279300015885,None,1,0.16734020001604222,19.996279300015885,None,19.996279300015885,None,test,001,2022-06-22_09h41.13.217,MemoryStudy,2022.1.4,59.96551983231222,
Mem,1,wheelchair.jpg,P,P,JPG\,wheelchair,C:\\Users\\Psychology\\Documents\\ABExperiment\\MemoryStudy\\resources\\JPG\\wheelchair.jpg,C:\\Users\\Psychology\\Documents\\ABExperiment\\MemoryStudy\\resources\\JPG\\,0,27,27,27,,,,,,,20.195044499996584,None,1,0.1525131000089459,20.195044499996584,None,20.195044499996584,None,test,001,2022-06-22_09h41.13.217,MemoryStudy,2022.1.4,59.96551983231222,
Mem,1,zebra.jpg,P,P,JPG\,zebra,C:\\Users\\Psychology\\Documents\\ABExperiment\\MemoryStudy\\resources\\JPG\\zebra.jpg,C:\\Users\\Psychology\\Documents\\ABExperiment\\MemoryStudy\\resources\\JPG\\,0,28,28,28,,,,,,,20.378355299995746,None,1,0.16117750000557862,20.378355299995746,None,20.378355299995746,None,test,001,2022-06-22_09h41.13.217,MemoryStudy,2022.1.4,59.96551983231222,
Mem,1,pooltable.jpg,P,P,JPG\,pooltable,C:\\Users\\Psychology\\Documents\\ABExperiment\\MemoryStudy\\resources\\JPG\\pooltable.jpg,C:\\Users\\Psychology\\Documents\\ABExperiment\\MemoryStudy\\resources\\JPG\\,0,29,29,29,,,,,,,20.561771600012435,None,1,0.16985700000077486,20.561771600012435,None,20.561771600012435,None,test,001,2022-06-22_09h41.13.217,MemoryStudy,2022.1.4,59.96551983231222,
Mem,1,swing.jpg,P,P,JPG\,swing,C:\\Users\\Psychology\\Documents\\ABExperiment\\MemoryStudy\\resources\\JPG\\swing.jpg,C:\\Users\\Psychology\\Documents\\ABExperiment\\MemoryStudy\\resources\\JPG\\,0,30,30,30,,,,,,,20.762168200017186,None,1,0.16943549999268726,20.762168200017186,None,20.762168200017186,None,test,001,2022-06-22_09h41.13.217,MemoryStudy,2022.1.4,59.96551983231222,
Mem,1,africanelephant.jpg,P,P,JPG\,africanelephant,C:\\Users\\Psychology\\Documents\\ABExperiment\\MemoryStudy\\resources\\JPG\\africanelephant.jpg,C:\\Users\\Psychology\\Documents\\ABExperiment\\MemoryStudy\\resources\\JPG\\,0,31,31,31,,,,,,,20.962427599995863,None,1,0.1692003000061959,20.962427599995863,None,20.962427599995863,None,test,001,2022-06-22_09h41.13.217,MemoryStudy,2022.1.4,59.96551983231222,
Mem,1,apron.jpg,P,P,JPG\,apron,C:\\Users\\Psychology\\Documents\\ABExperiment\\MemoryStudy\\resources\\JPG\\apron.jpg,C:\\Users\\Psychology\\Documents\\ABExperiment\\MemoryStudy\\resources\\JPG\\,0,32,32,32,,,,,,,21.162525599997025,None,1,0.14515610001399182,21.162525599997025,None,21.162525599997025,None,test,001,2022-06-22_09h41.13.217,MemoryStudy,2022.1.4,59.96551983231222,
Mem,1,barnowl.jpg,P,P,JPG\,barnowl,C:\\Users\\Psychology\\Documents\\ABExperiment\\MemoryStudy\\resources\\JPG\\barnowl.jpg,C:\\Users\\Psychology\\Documents\\ABExperiment\\MemoryStudy\\resources\\JPG\\,0,33,33,33,,,,,,,21.411276600003475,None,1,0.08820100000593811,21.411276600003475,None,21.411276600003475,None,test,001,2022-06-22_09h41.13.217,MemoryStudy,2022.1.4,59.96551983231222,
Mem,1,basketball01.jpg,P,P,JPG\,basketball01,C:\\Users\\Psychology\\Documents\\ABExperiment\\MemoryStudy\\resources\\JPG\\basketball01.jpg,C:\\Users\\Psychology\\Documents\\ABExperiment\\MemoryStudy\\resources\\JPG\\,0,34,34,34,,,,,,,21.53185110000777,None,1,0.16756640002131462,21.53185110000777,None,21.53185110000777,None,test,001,2022-06-22_09h41.13.217,MemoryStudy,2022.1.4,59.96551983231222,
Mem,1,bat.jpg,P,P,JPG\,bat,C:\\Users\\Psychology\\Documents\\ABExperiment\\MemoryStudy\\resources\\JPG\\bat.jpg,C:\\Users\\Psychology\\Documents\\ABExperiment\\MemoryStudy\\resources\\JPG\\,0,35,35,35,,,,,,,21.73146860001725,None,1,0.1521851000143215,21.73146860001725,None,21.73146860001725,None,test,001,2022-06-22_09h41.13.217,MemoryStudy,2022.1.4,59.96551983231222,
Mem,1,cloud.jpg,P,P,JPG\,cloud,C:\\Users\\Psychology\\Documents\\ABExperiment\\MemoryStudy\\resources\\JPG\\cloud.jpg,C:\\Users\\Psychology\\Documents\\ABExperiment\\MemoryStudy\\resources\\JPG\\,0,36,36,36,,,,,,,21.91502440001932,None,1,0.14486629999009892,21.91502440001932,None,21.91502440001932,None,test,001,2022-06-22_09h41.13.217,MemoryStudy,2022.1.4,59.96551983231222,
Mem,1,crab01.jpg,P,P,JPG\,crab01,C:\\Users\\Psychology\\Documents\\ABExperiment\\MemoryStudy\\resources\\JPG\\crab01.jpg,C:\\Users\\Psychology\\Documents\\ABExperiment\\MemoryStudy\\resources\\JPG\\,0,37,37,37,,,,,,,22.08228400000371,None,1,0.1535530999826733,22.08228400000371,None,22.08228400000371,None,test,001,2022-06-22_09h41.13.217,MemoryStudy,2022.1.4,59.96551983231222,
Mem,1,cupcake.jpg,P,P,JPG\,cupcake,C:\\Users\\Psychology\\Documents\\ABExperiment\\MemoryStudy\\resources\\JPG\\cupcake.jpg,C:\\Users\\Psychology\\Documents\\ABExperiment\\MemoryStudy\\resources\\JPG\\,0,38,38,38,,,,,,,22.26594860001933,None,1,0.15385689999675378,22.26594860001933,None,22.26594860001933,None,test,001,2022-06-22_09h41.13.217,MemoryStudy,2022.1.4,59.96551983231222,
Mem,1,donut.jpg,P,P,JPG\,donut,C:\\Users\\Psychology\\Documents\\ABExperiment\\MemoryStudy\\resources\\JPG\\donut.jpg,C:\\Users\\Psychology\\Documents\\ABExperiment\\MemoryStudy\\resources\\JPG\\,0,39,39,39,,,,,,,22.449480100010987,None,1,0.1462249000032898,22.449480100010987,None,22.449480100010987,None,test,001,2022-06-22_09h41.13.217,MemoryStudy,2022.1.4,59.96551983231222,
Mem,1,eiffeltower.jpg,P,P,JPG\,eiffeltower,C:\\Users\\Psychology\\Documents\\ABExperiment\\MemoryStudy\\resources\\JPG\\eiffeltower.jpg,C:\\Users\\Psychology\\Documents\\ABExperiment\\MemoryStudy\\resources\\JPG\\,0,40,40,40,,,,,,,22.616111700015608,None,1,0.17962769998121075,22.616111700015608,None,22.616111700015608,None,test,001,2022-06-22_09h41.13.217,MemoryStudy,2022.1.4,59.96551983231222,
Mem,1,exitsign.jpg,P,P,JPG\,exitsign,C:\\Users\\Psychology\\Documents\\ABExperiment\\MemoryStudy\\resources\\JPG\\exitsign.jpg,C:\\Users\\Psychology\\Documents\\ABExperiment\\MemoryStudy\\resources\\JPG\\,0,41,41,41,,,,,,,22.81644680001773,None,1,0.16328489998704754,22.81644680001773,None,22.81644680001773,None,test,001,2022-06-22_09h41.13.217,MemoryStudy,2022.1.4,59.96551983231222,
Mem,1,fortunecookie.jpg,P,P,JPG\,fortunecookie,C:\\Users\\Psychology\\Documents\\ABExperiment\\MemoryStudy\\resources\\JPG\\fortunecookie.jpg,C:\\Users\\Psychology\\Documents\\ABExperiment\\MemoryStudy\\resources\\JPG\\,0,42,42,42,,,,,,,22.999982600013027,None,1,0.18789339999784715,22.999982600013027,None,22.999982600013027,None,test,001,2022-06-22_09h41.13.217,MemoryStudy,2022.1.4,59.96551983231222,
Mem,1,harmonica.jpg,P,P,JPG\,harmonica,C:\\Users\\Psychology\\Documents\\ABExperiment\\MemoryStudy\\resources\\JPG\\harmonica.jpg,C:\\Users\\Psychology\\Documents\\ABExperiment\\MemoryStudy\\resources\\JPG\\,0,43,43,43,,,,,,,23.21682289999444,None,1,0.16287490000831895,23.21682289999444,None,23.21682289999444,None,test,001,2022-06-22_09h41.13.217,MemoryStudy,2022.1.4,59.96551983231222,
Mem,1,doghouse.jpg,P,P,JPG\,doghouse,C:\\Users\\Psychology\\Documents\\ABExperiment\\MemoryStudy\\resources\\JPG\\doghouse.jpg,C:\\Users\\Psychology\\Documents\\ABExperiment\\MemoryStudy\\resources\\JPG\\,0,44,44,44,,,,,,,23.400412500021048,None,1,0.16319089999888092,23.400412500021048,None,23.400412500021048,None,test,001,2022-06-22_09h41.13.217,MemoryStudy,2022.1.4,59.96551983231222,
Mem,1,ladder.jpg,P,P,JPG\,ladder,C:\\Users\\Psychology\\Documents\\ABExperiment\\MemoryStudy\\resources\\JPG\\ladder.jpg,C:\\Users\\Psychology\\Documents\\ABExperiment\\MemoryStudy\\resources\\JPG\\,0,45,45,45,,,,,,,23.583992100000614,None,1,0.15566760001820512,23.583992100000614,None,23.583992100000614,None,test,001,2022-06-22_09h41.13.217,MemoryStudy,2022.1.4,59.96551983231222,
Mem,1,lawnmower.jpg,P,P,JPG\,lawnmower,C:\\Users\\Psychology\\Documents\\ABExperiment\\MemoryStudy\\resources\\JPG\\lawnmower.jpg,C:\\Users\\Psychology\\Documents\\ABExperiment\\MemoryStudy\\resources\\JPG\\,0,46,46,46,,,,,,,23.767467300000135,None,1,0.15620120000676252,23.767467300000135,None,23.767467300000135,None,test,001,2022-06-22_09h41.13.217,MemoryStudy,2022.1.4,59.96551983231222,
Mem,1,parkingsign.jpg,P,P,JPG\,parkingsign,C:\\Users\\Psychology\\Documents\\ABExperiment\\MemoryStudy\\resources\\JPG\\parkingsign.jpg,C:\\Users\\Psychology\\Documents\\ABExperiment\\MemoryStudy\\resources\\JPG\\,0,47,47,47,,,,,,,23.950836600008188,None,1,0.1560563999810256,23.950836600008188,None,23.950836600008188,None,test,001,2022-06-22_09h41.13.217,MemoryStudy,2022.1.4,59.96551983231222,
Mem,1,skunk.jpg,P,P,JPG\,skunk,C:\\Users\\Psychology\\Documents\\ABExperiment\\MemoryStudy\\resources\\JPG\\skunk.jpg,C:\\Users\\Psychology\\Documents\\ABExperiment\\MemoryStudy\\resources\\JPG\\,0,48,48,48,,,,,,,24.134462999994867,None,1,0.1732252000074368,24.134462999994867,None,24.134462999994867,None,test,001,2022-06-22_09h41.13.217,MemoryStudy,2022.1.4,59.96551983231222,
Mem,1,snowboard.jpg,P,P,JPG\,snowboard,C:\\Users\\Psychology\\Documents\\ABExperiment\\MemoryStudy\\resources\\JPG\\snowboard.jpg,C:\\Users\\Psychology\\Documents\\ABExperiment\\MemoryStudy\\resources\\JPG\\,0,49,49,49,,,,,,,24.334695500001544,None,1,0.1571297000045888,24.334695500001544,None,24.334695500001544,None,test,001,2022-06-22_09h41.13.217,MemoryStudy,2022.1.4,59.96551983231222,
Mem,1,tiger02.jpg,P,P,JPG\,tiger02,C:\\Users\\Psychology\\Documents\\ABExperiment\\MemoryStudy\\resources\\JPG\\tiger02.jpg,C:\\Users\\Psychology\\Documents\\ABExperiment\\MemoryStudy\\resources\\JPG\\,0,50,50,50,,,,,,,24.51805750001222,None,1,0.17364659998565912,24.51805750001222,None,24.51805750001222,None,test,001,2022-06-22_09h41.13.217,MemoryStudy,2022.1.4,59.96551983231222,
Mem,1,tree.jpg,P,P,JPG\,tree,C:\\Users\\Psychology\\Documents\\ABExperiment\\MemoryStudy\\resources\\JPG\\tree.jpg,C:\\Users\\Psychology\\Documents\\ABExperiment\\MemoryStudy\\resources\\JPG\\,0,51,51,51,,,,,,,24.7182415999996,None,1,0.15660389998811297,24.7182415999996,None,24.7182415999996,None,test,001,2022-06-22_09h41.13.217,MemoryStudy,2022.1.4,59.96551983231222,
Mem,1,waterfall.jpg,P,P,JPG\,waterfall,C:\\Users\\Psychology\\Documents\\ABExperiment\\MemoryStudy\\resources\\JPG\\waterfall.jpg,C:\\Users\\Psychology\\Documents\\ABExperiment\\MemoryStudy\\resources\\JPG\\,0,52,52,52,,,,,,,24.90452060001553,None,1,0.14710819997708313,24.90452060001553,None,24.90452060001553,None,test,001,2022-06-22_09h41.13.217,MemoryStudy,2022.1.4,59.96551983231222,
Mem,1,bow.jpg,P,P,JPG\,bow,C:\\Users\\Psychology\\Documents\\ABExperiment\\MemoryStudy\\resources\\JPG\\bow.jpg,C:\\Users\\Psychology\\Documents\\ABExperiment\\MemoryStudy\\resources\\JPG\\,0,53,53,53,,,,,,,25.08525329999975,None,1,0.15928819999680854,25.08525329999975,None,25.08525329999975,None,test,001,2022-06-22_09h41.13.217,MemoryStudy,2022.1.4,59.96551983231222,
Mem,1,arugula.jpg,P,P,JPG\,arugula,C:\\Users\\Psychology\\Documents\\ABExperiment\\MemoryStudy\\resources\\JPG\\arugula.jpg,C:\\Users\\Psychology\\Documents\\ABExperiment\\MemoryStudy\\resources\\JPG\\,0,54,54,54,,,,,,,25.349377000005916,None,1,0.07855459998245351,25.349377000005916,None,25.349377000005916,None,test,001,2022-06-22_09h41.13.217,MemoryStudy,2022.1.4,59.96551983231222,
Mem,1,beaver.jpg,P,P,JPG\,beaver,C:\\Users\\Psychology\\Documents\\ABExperiment\\MemoryStudy\\resources\\JPG\\beaver.jpg,C:\\Users\\Psychology\\Documents\\ABExperiment\\MemoryStudy\\resources\\JPG\\,0,55,55,55,,,,,,,25.45219189999625,None,1,0.1675826999999117,25.45219189999625,None,25.45219189999625,None,test,001,2022-06-22_09h41.13.217,MemoryStudy,2022.1.4,59.96551983231222,
Mem,1,snowglobe.jpg,P,P,JPG\,snowglobe,C:\\Users\\Psychology\\Documents\\ABExperiment\\MemoryStudy\\resources\\JPG\\snowglobe.jpg,C:\\Users\\Psychology\\Documents\\ABExperiment\\MemoryStudy\\resources\\JPG\\,0,56,56,56,,,,,,,25.750683599995682,None,1,0.060463600006187335,25.750683599995682,None,25.750683599995682,None,test,001,2022-06-22_09h41.13.217,MemoryStudy,2022.1.4,59.96551983231222,
Mem,1,bullet.jpg,P,P,JPG\,bullet,C:\\Users\\Psychology\\Documents\\ABExperiment\\MemoryStudy\\resources\\JPG\\bullet.jpg,C:\\Users\\Psychology\\Documents\\ABExperiment\\MemoryStudy\\resources\\JPG\\,0,57,57,57,,,,,,,25.835728600010043,None,1,0.16764850000618026,25.835728600010043,None,25.835728600010043,None,test,001,2022-06-22_09h41.13.217,MemoryStudy,2022.1.4,59.96551983231222,
Mem,1,cactus.jpg,P,P,JPG\,cactus,C:\\Users\\Psychology\\Documents\\ABExperiment\\MemoryStudy\\resources\\JPG\\cactus.jpg,C:\\Users\\Psychology\\Documents\\ABExperiment\\MemoryStudy\\resources\\JPG\\,0,58,58,58,,,,,,,26.033083300018916,None,1,0.16993750000256114,26.033083300018916,None,26.033083300018916,None,test,001,2022-06-22_09h41.13.217,MemoryStudy,2022.1.4,59.96551983231222,
Mem,1,cow.jpg,P,P,JPG\,cow,C:\\Users\\Psychology\\Documents\\ABExperiment\\MemoryStudy\\resources\\JPG\\cow.jpg,C:\\Users\\Psychology\\Documents\\ABExperiment\\MemoryStudy\\resources\\JPG\\,0,59,59,59,,,,,,,26.235335000004852,None,1,0.15165609997347929,26.235335000004852,None,26.235335000004852,None,test,001,2022-06-22_09h41.13.217,MemoryStudy,2022.1.4,59.96551983231222,
Mem,1,discoball.jpg,P,P,JPG\,discoball,C:\\Users\\Psychology\\Documents\\ABExperiment\\MemoryStudy\\resources\\JPG\\discoball.jpg,C:\\Users\\Psychology\\Documents\\ABExperiment\\MemoryStudy\\resources\\JPG\\,0,60,60,60,,,,,,,26.41980329999933,None,1,0.1670713999774307,26.41980329999933,None,26.41980329999933,None,test,001,2022-06-22_09h41.13.217,MemoryStudy,2022.1.4,59.96551983231222,
Mem,1,drumstick.jpg,P,P,JPG\,drumstick,C:\\Users\\Psychology\\Documents\\ABExperiment\\MemoryStudy\\resources\\JPG\\drumstick.jpg,C:\\Users\\Psychology\\Documents\\ABExperiment\\MemoryStudy\\resources\\JPG\\,0,61,61,61,,,,,,,26.619094299996505,None,1,0.15985149997868575,26.619094299996505,None,26.619094299996505,None,test,001,2022-06-22_09h41.13.217,MemoryStudy,2022.1.4,59.96551983231222,
Mem,1,fingerprint.jpg,P,P,JPG\,fingerprint,C:\\Users\\Psychology\\Documents\\ABExperiment\\MemoryStudy\\resources\\JPG\\fingerprint.jpg,C:\\Users\\Psychology\\Documents\\ABExperiment\\MemoryStudy\\resources\\JPG\\,0,62,62,62,,,,,,,26.803147600003285,None,1,0.16780220001237467,26.803147600003285,None,26.803147600003285,None,test,001,2022-06-22_09h41.13.217,MemoryStudy,2022.1.4,59.96551983231222,
Mem,1,hockeystick.jpg,P,P,JPG\,hockeystick,C:\\Users\\Psychology\\Documents\\ABExperiment\\MemoryStudy\\resources\\JPG\\hockeystick.jpg,C:\\Users\\Psychology\\Documents\\ABExperiment\\MemoryStudy\\resources\\JPG\\,0,63,63,63,,,,,,,27.003171999996994,None,1,0.15220929999486543,27.003171999996994,None,27.003171999996994,None,test,001,2022-06-22_09h41.13.217,MemoryStudy,2022.1.4,59.96551983231222,
Mem,1,hulahoop.jpg,P,P,JPG\,hulahoop,C:\\Users\\Psychology\\Documents\\ABExperiment\\MemoryStudy\\resources\\JPG\\hulahoop.jpg,C:\\Users\\Psychology\\Documents\\ABExperiment\\MemoryStudy\\resources\\JPG\\,0,64,64,64,,,,,,,27.186860899993917,None,1,0.1604648999928031,27.186860899993917,None,27.186860899993917,None,test,001,2022-06-22_09h41.13.217,MemoryStudy,2022.1.4,59.96551983231222,
Mem,1,ladybug03.jpg,P,P,JPG\,ladybug03,C:\\Users\\Psychology\\Documents\\ABExperiment\\MemoryStudy\\resources\\JPG\\ladybug03.jpg,C:\\Users\\Psychology\\Documents\\ABExperiment\\MemoryStudy\\resources\\JPG\\,0,65,65,65,,,,,,,27.382998500019312,None,1,0.14026580000063404,27.382998500019312,None,27.382998500019312,None,test,001,2022-06-22_09h41.13.217,MemoryStudy,2022.1.4,59.96551983231222,
Mem,1,magneticcompass.jpg,P,P,JPG\,magneticcompass,C:\\Users\\Psychology\\Documents\\ABExperiment\\MemoryStudy\\resources\\JPG\\magneticcompass.jpg,C:\\Users\\Psychology\\Documents\\ABExperiment\\MemoryStudy\\resources\\JPG\\,0,66,66,66,,,,,,,27.553894100012258,None,1,0.17829529999289662,27.553894100012258,None,27.553894100012258,None,test,001,2022-06-22_09h41.13.217,MemoryStudy,2022.1.4,59.96551983231222,
Mem,1,moose.jpg,P,P,JPG\,moose,C:\\Users\\Psychology\\Documents\\ABExperiment\\MemoryStudy\\resources\\JPG\\moose.jpg,C:\\Users\\Psychology\\Documents\\ABExperiment\\MemoryStudy\\resources\\JPG\\,0,67,67,67,,,,,,,27.75412349999533,None,1,0.17818789999000728,27.75412349999533,None,27.75412349999533,None,test,001,2022-06-22_09h41.13.217,MemoryStudy,2022.1.4,59.96551983231222,
Mem,1,peacock.jpg,P,P,JPG\,peacock,C:\\Users\\Psychology\\Documents\\ABExperiment\\MemoryStudy\\resources\\JPG\\peacock.jpg,C:\\Users\\Psychology\\Documents\\ABExperiment\\MemoryStudy\\resources\\JPG\\,0,68,68,68,,,,,,,27.95445839999593,None,1,0.16083350000553764,27.95445839999593,None,27.95445839999593,None,test,001,2022-06-22_09h41.13.217,MemoryStudy,2022.1.4,59.96551983231222,
Mem,1,rooster.jpg,P,P,JPG\,rooster,C:\\Users\\Psychology\\Documents\\ABExperiment\\MemoryStudy\\resources\\JPG\\rooster.jpg,C:\\Users\\Psychology\\Documents\\ABExperiment\\MemoryStudy\\resources\\JPG\\,0,69,69,69,,,,,,,28.137805800011847,None,1,0.16964040001039393,28.137805800011847,None,28.137805800011847,None,test,001,2022-06-22_09h41.13.217,MemoryStudy,2022.1.4,59.96551983231222,
Mem,1,sandcastle.jpg,P,P,JPG\,sandcastle,C:\\Users\\Psychology\\Documents\\ABExperiment\\MemoryStudy\\resources\\JPG\\sandcastle.jpg,C:\\Users\\Psychology\\Documents\\ABExperiment\\MemoryStudy\\resources\\JPG\\,0,70,70,70,,,,,,,28.338066800002707,None,1,0.16135779998148791,28.338066800002707,None,28.338066800002707,None,test,001,2022-06-22_09h41.13.217,MemoryStudy,2022.1.4,59.96551983231222,
Mem,1,sheep.jpg,P,P,JPG\,sheep,C:\\Users\\Psychology\\Documents\\ABExperiment\\MemoryStudy\\resources\\JPG\\sheep.jpg,C:\\Users\\Psychology\\Documents\\ABExperiment\\MemoryStudy\\resources\\JPG\\,0,71,71,71,,,,,,,28.522093400009908,None,1,0.18545540000195615,28.522093400009908,None,28.522093400009908,None,test,001,2022-06-22_09h41.13.217,MemoryStudy,2022.1.4,59.96551983231222,
Mem,1,spiderweb.jpg,P,P,JPG\,spiderweb,C:\\Users\\Psychology\\Documents\\ABExperiment\\MemoryStudy\\resources\\JPG\\spiderweb.jpg,C:\\Users\\Psychology\\Documents\\ABExperiment\\MemoryStudy\\resources\\JPG\\,0,72,72,72,,,,,,,28.738478800019948,None,1,0.16909599999780767,28.738478800019948,None,28.738478800019948,None,test,001,2022-06-22_09h41.13.217,MemoryStudy,2022.1.4,59.96551983231222,
Mem,1,trampoline.jpg,P,P,JPG\,trampoline,C:\\Users\\Psychology\\Documents\\ABExperiment\\MemoryStudy\\resources\\JPG\\trampoline.jpg,C:\\Users\\Psychology\\Documents\\ABExperiment\\MemoryStudy\\resources\\JPG\\,0,73,73,73,,,,,,,28.938540200004354,None,1,0.1609949999838136,28.938540200004354,None,28.938540200004354,None,test,001,2022-06-22_09h41.13.217,MemoryStudy,2022.1.4,59.96551983231222,
Mem,1,trophy01.jpg,P,P,JPG\,trophy01,C:\\Users\\Psychology\\Documents\\ABExperiment\\MemoryStudy\\resources\\JPG\\trophy01.jpg,C:\\Users\\Psychology\\Documents\\ABExperiment\\MemoryStudy\\resources\\JPG\\,0,74,74,74,,,,,,,29.122164900007192,None,1,0.1612821000162512,29.122164900007192,None,29.122164900007192,None,test,001,2022-06-22_09h41.13.217,MemoryStudy,2022.1.4,59.96551983231222,
Mem,1,windmill.jpg,P,P,JPG\,windmill,C:\\Users\\Psychology\\Documents\\ABExperiment\\MemoryStudy\\resources\\JPG\\windmill.jpg,C:\\Users\\Psychology\\Documents\\ABExperiment\\MemoryStudy\\resources\\JPG\\,0,75,75,75,,,,,,,29.3057356000063,None,1,0.18565830000443384,29.3057356000063,None,29.3057356000063,None,test,001,2022-06-22_09h41.13.217,MemoryStudy,2022.1.4,59.96551983231222,
Mem,1,arrow02.jpg,P,P,JPG\,arrow02,C:\\Users\\Psychology\\Documents\\ABExperiment\\MemoryStudy\\resources\\JPG\\arrow02.jpg,C:\\Users\\Psychology\\Documents\\ABExperiment\\MemoryStudy\\resources\\JPG\\,0,76,76,76,,,,,,,29.522257600008743,None,1,0.1450980000081472,29.522257600008743,None,29.522257600008743,None,test,001,2022-06-22_09h41.13.217,MemoryStudy,2022.1.4,59.96551983231222,
Mem,1,birdhouse.jpg,P,P,JPG\,birdhouse,C:\\Users\\Psychology\\Documents\\ABExperiment\\MemoryStudy\\resources\\JPG\\birdhouse.jpg,C:\\Users\\Psychology\\Documents\\ABExperiment\\MemoryStudy\\resources\\JPG\\,0,77,77,77,,,,,,,29.689463600021554,None,1,0.1700332000036724,29.689463600021554,None,29.689463600021554,None,test,001,2022-06-22_09h41.13.217,MemoryStudy,2022.1.4,59.96551983231222,
Mem,1,bridge.jpg,P,P,JPG\,bridge,C:\\Users\\Psychology\\Documents\\ABExperiment\\MemoryStudy\\resources\\JPG\\bridge.jpg,C:\\Users\\Psychology\\Documents\\ABExperiment\\MemoryStudy\\resources\\JPG\\,0,78,78,78,,,,,,,29.88951750000706,None,1,0.16207170000416227,29.88951750000706,None,29.88951750000706,None,test,001,2022-06-22_09h41.13.217,MemoryStudy,2022.1.4,59.96551983231222,
Mem,1,cashregister01.jpg,P,P,JPG\,cashregister01,C:\\Users\\Psychology\\Documents\\ABExperiment\\MemoryStudy\\resources\\JPG\\cashregister01.jpg,C:\\Users\\Psychology\\Documents\\ABExperiment\\MemoryStudy\\resources\\JPG\\,0,79,79,79,,,,,,,30.07747859999654,None,1,0.17505469999741763,30.07747859999654,None,30.07747859999654,None,test,001,2022-06-22_09h41.13.217,MemoryStudy,2022.1.4,59.96551983231222,
Mem,1,dartboard.jpg,P,P,JPG\,dartboard,C:\\Users\\Psychology\\Documents\\ABExperiment\\MemoryStudy\\resources\\JPG\\dartboard.jpg,C:\\Users\\Psychology\\Documents\\ABExperiment\\MemoryStudy\\resources\\JPG\\,0,80,80,80,,,,,,,30.271106700005475,None,1,0.17277829998056404,30.271106700005475,None,30.271106700005475,None,test,001,2022-06-22_09h41.13.217,MemoryStudy,2022.1.4,59.96551983231222,
Mem,1,dreamcatcher.jpg,P,P,JPG\,dreamcatcher,C:\\Users\\Psychology\\Documents\\ABExperiment\\MemoryStudy\\resources\\JPG\\dreamcatcher.jpg,C:\\Users\\Psychology\\Documents\\ABExperiment\\MemoryStudy\\resources\\JPG\\,0,81,81,81,,,,,,,30.47128860000521,None,1,0.17993449998903088,30.47128860000521,None,30.47128860000521,None,test,001,2022-06-22_09h41.13.217,MemoryStudy,2022.1.4,59.96551983231222,
Mem,1,escalator.jpg,P,P,JPG\,escalator,C:\\Users\\Psychology\\Documents\\ABExperiment\\MemoryStudy\\resources\\JPG\\escalator.jpg,C:\\Users\\Psychology\\Documents\\ABExperiment\\MemoryStudy\\resources\\JPG\\,0,82,82,82,,,,,,,30.671297799999593,None,1,0.17307980000623502,30.671297799999593,None,30.671297799999593,None,test,001,2022-06-22_09h41.13.217,MemoryStudy,2022.1.4,59.96551983231222,
Mem,1,firehydrant.jpg,P,P,JPG\,firehydrant,C:\\Users\\Psychology\\Documents\\ABExperiment\\MemoryStudy\\resources\\JPG\\firehydrant.jpg,C:\\Users\\Psychology\\Documents\\ABExperiment\\MemoryStudy\\resources\\JPG\\,0,83,83,83,,,,,,,30.871755200001644,None,1,0.1648984999919776,30.871755200001644,None,30.871755200001644,None,test,001,2022-06-22_09h41.13.217,MemoryStudy,2022.1.4,59.96551983231222,
Mem,1,greatwhiteshark.jpg,P,P,JPG\,greatwhiteshark,C:\\Users\\Psychology\\Documents\\ABExperiment\\MemoryStudy\\resources\\JPG\\greatwhiteshark.jpg,C:\\Users\\Psychology\\Documents\\ABExperiment\\MemoryStudy\\resources\\JPG\\,0,84,84,84,,,,,,,31.05526330001885,None,1,0.18039270001463592,31.05526330001885,None,31.05526330001885,None,test,001,2022-06-22_09h41.13.217,MemoryStudy,2022.1.4,59.96551983231222,
Mem,1,helicopter.jpg,P,P,JPG\,helicopter,C:\\Users\\Psychology\\Documents\\ABExperiment\\MemoryStudy\\resources\\JPG\\helicopter.jpg,C:\\Users\\Psychology\\Documents\\ABExperiment\\MemoryStudy\\resources\\JPG\\,0,85,85,85,,,,,,,31.255428800010122,None,1,0.15638099997886457,31.255428800010122,None,31.255428800010122,None,test,001,2022-06-22_09h41.13.217,MemoryStudy,2022.1.4,59.96551983231222,
Mem,1,smokingsign.jpg,P,P,JPG\,smokingsign,C:\\Users\\Psychology\\Documents\\ABExperiment\\MemoryStudy\\resources\\JPG\\smokingsign.jpg,C:\\Users\\Psychology\\Documents\\ABExperiment\\MemoryStudy\\resources\\JPG\\,0,86,86,86,,,,,,,31.438844799995422,None,1,0.17328719998477027,31.438844799995422,None,31.438844799995422,None,test,001,2022-06-22_09h41.13.217,MemoryStudy,2022.1.4,59.96551983231222,
Mem,1,barnowl.jpg,P,P,JPG\,barnowl,C:\\Users\\Psychology\\Documents\\ABExperiment\\MemoryStudy\\resources\\JPG\\barnowl.jpg,C:\\Users\\Psychology\\Documents\\ABExperiment\\MemoryStudy\\resources\\JPG\\,0,87,87,87,,,,,,,31.709244099998614,None,1,0.1021918999904301,31.709244099998614,None,31.709244099998614,None,test,001,2022-06-22_09h41.13.217,MemoryStudy,2022.1.4,59.96551983231222,
Mem,1,pig.jpg,P,P,JPG\,pig,C:\\Users\\Psychology\\Documents\\ABExperiment\\MemoryStudy\\resources\\JPG\\pig.jpg,C:\\Users\\Psychology\\Documents\\ABExperiment\\MemoryStudy\\resources\\JPG\\,0,88,88,88,,,,,,,31.842235100019025,None,1,0.16930280000087805,31.842235100019025,None,31.842235100019025,None,test,001,2022-06-22_09h41.13.217,MemoryStudy,2022.1.4,59.96551983231222,
Mem,1,polarbear.jpg,P,P,JPG\,polarbear,C:\\Users\\Psychology\\Documents\\ABExperiment\\MemoryStudy\\resources\\JPG\\polarbear.jpg,C:\\Users\\Psychology\\Documents\\ABExperiment\\MemoryStudy\\resources\\JPG\\,0,89,89,89,,,,,,,32.04328360001091,None,1,0.1519053999800235,32.04328360001091,None,32.04328360001091,None,test,001,2022-06-22_09h41.13.217,MemoryStudy,2022.1.4,59.96551983231222,
Mem,1,sandbarshark.jpg,P,P,JPG\,sandbarshark,C:\\Users\\Psychology\\Documents\\ABExperiment\\MemoryStudy\\resources\\JPG\\sandbarshark.jpg,C:\\Users\\Psychology\\Documents\\ABExperiment\\MemoryStudy\\resources\\JPG\\,0,90,90,90,,,,,,,32.30916440000874,None,1,0.08644769998500124,32.30916440000874,None,32.30916440000874,None,test,001,2022-06-22_09h41.13.217,MemoryStudy,2022.1.4,59.96551983231222,
Mem,1,telescope.jpg,P,P,JPG\,telescope,C:\\Users\\Psychology\\Documents\\ABExperiment\\MemoryStudy\\resources\\JPG\\telescope.jpg,C:\\Users\\Psychology\\Documents\\ABExperiment\\MemoryStudy\\resources\\JPG\\,0,91,91,91,,,,,,,32.438163500017254,None,1,0.16547479998553172,32.438163500017254,None,32.438163500017254,None,test,001,2022-06-22_09h41.13.217,MemoryStudy,2022.1.4,59.96551983231222,
Mem,1,tent.jpg,P,P,JPG\,tent,C:\\Users\\Psychology\\Documents\\ABExperiment\\MemoryStudy\\resources\\JPG\\tent.jpg,C:\\Users\\Psychology\\Documents\\ABExperiment\\MemoryStudy\\resources\\JPG\\,0,92,92,92,,,,,,,32.62609840001096,None,1,0.1695258000108879,32.62609840001096,None,32.62609840001096,None,test,001,2022-06-22_09h41.13.217,MemoryStudy,2022.1.4,59.96551983231222,
Mem,1,toilet.jpg,P,P,JPG\,toilet,C:\\Users\\Psychology\\Documents\\ABExperiment\\MemoryStudy\\resources\\JPG\\toilet.jpg,C:\\Users\\Psychology\\Documents\\ABExperiment\\MemoryStudy\\resources\\JPG\\,0,93,93,93,,,,,,,32.82635879999725,None,1,0.16113890000269748,32.82635879999725,None,32.82635879999725,None,test,001,2022-06-22_09h41.13.217,MemoryStudy,2022.1.4,59.96551983231222,
Mem,1,tricycle.jpg,P,P,JPG\,tricycle,C:\\Users\\Psychology\\Documents\\ABExperiment\\MemoryStudy\\resources\\JPG\\tricycle.jpg,C:\\Users\\Psychology\\Documents\\ABExperiment\\MemoryStudy\\resources\\JPG\\,0,94,94,94,,,,,,,33.011105900019174,None,1,0.1840706999937538,33.011105900019174,None,33.011105900019174,None,test,001,2022-06-22_09h41.13.217,MemoryStudy,2022.1.4,59.96551983231222,
Mem,1,rubikcube.jpg,P,P,JPG\,rubikcube,C:\\Users\\Psychology\\Documents\\ABExperiment\\MemoryStudy\\resources\\JPG\\rubikcube.jpg,C:\\Users\\Psychology\\Documents\\ABExperiment\\MemoryStudy\\resources\\JPG\\,0,95,95,95,,,,,,,33.22634370002197,None,1,0.15369509998708963,33.22634370002197,None,33.22634370002197,None,test,001,2022-06-22_09h41.13.217,MemoryStudy,2022.1.4,59.96551983231222,
Mem,1,anchor.jpg,P,P,JPG\,anchor,C:\\Users\\Psychology\\Documents\\ABExperiment\\MemoryStudy\\resources\\JPG\\anchor.jpg,C:\\Users\\Psychology\\Documents\\ABExperiment\\MemoryStudy\\resources\\JPG\\,0,96,96,96,,,,,,,33.40958629999659,None,1,0.17045439998037182,33.40958629999659,None,33.40958629999659,None,test,001,2022-06-22_09h41.13.217,MemoryStudy,2022.1.4,59.96551983231222,
Mem,1,beerbottle.jpg,P,P,JPG\,beerbottle,C:\\Users\\Psychology\\Documents\\ABExperiment\\MemoryStudy\\resources\\JPG\\beerbottle.jpg,C:\\Users\\Psychology\\Documents\\ABExperiment\\MemoryStudy\\resources\\JPG\\,0,97,97,97,,,,,,,33.60974340001121,None,1,0.16928820000612177,33.60974340001121,None,33.60974340001121,None,test,001,2022-06-22_09h41.13.217,MemoryStudy,2022.1.4,59.96551983231222,
Mem,1,bowtie.jpg,P,P,JPG\,bowtie,C:\\Users\\Psychology\\Documents\\ABExperiment\\MemoryStudy\\resources\\JPG\\bowtie.jpg,C:\\Users\\Psychology\\Documents\\ABExperiment\\MemoryStudy\\resources\\JPG\\,0,98,98,98,,,,,,,33.81004790001316,None,1,0.1770503000007011,33.81004790001316,None,33.81004790001316,None,test,001,2022-06-22_09h41.13.217,MemoryStudy,2022.1.4,59.96551983231222,
Mem,1,cannon.jpg,P,P,JPG\,cannon,C:\\Users\\Psychology\\Documents\\ABExperiment\\MemoryStudy\\resources\\JPG\\cannon.jpg,C:\\Users\\Psychology\\Documents\\ABExperiment\\MemoryStudy\\resources\\JPG\\,0,99,99,99,,,,,,,34.01020710001467,None,1,0.16898889999720268,34.01020710001467,None,34.01020710001467,None,test,001,2022-06-22_09h41.13.217,MemoryStudy,2022.1.4,59.96551983231222,
Mem,1,cat.jpg,P,P,JPG\,cat,C:\\Users\\Psychology\\Documents\\ABExperiment\\MemoryStudy\\resources\\JPG\\cat.jpg,C:\\Users\\Psychology\\Documents\\ABExperiment\\MemoryStudy\\resources\\JPG\\,0,100,100,100,,,,,,,34.210557400016114,None,1,0.15257799997925758,34.210557400016114,None,34.210557400016114,None,test,001,2022-06-22_09h41.13.217,MemoryStudy,2022.1.4,59.96551983231222,
Mem,1,chair.jpg,P,P,JPG\,chair,C:\\Users\\Psychology\\Documents\\ABExperiment\\MemoryStudy\\resources\\JPG\\chair.jpg,C:\\Users\\Psychology\\Documents\\ABExperiment\\MemoryStudy\\resources\\JPG\\,0,101,101,101,,,,,,,34.3938653000223,None,1,0.16926199998124503,34.3938653000223,None,34.3938653000223,None,test,001,2022-06-22_09h41.13.217,MemoryStudy,2022.1.4,59.96551983231222,
Mem,1,cross01.jpg,P,P,JPG\,cross01,C:\\Users\\Psychology\\Documents\\ABExperiment\\MemoryStudy\\resources\\JPG\\cross01.jpg,C:\\Users\\Psychology\\Documents\\ABExperiment\\MemoryStudy\\resources\\JPG\\,0,102,102,102,,,,,,,34.59411639999598,None,1,0.1690078999963589,34.59411639999598,None,34.59411639999598,None,test,001,2022-06-22_09h41.13.217,MemoryStudy,2022.1.4,59.96551983231222,
Mem,1,englishcucumber.jpg,P,P,JPG\,englishcucumber,C:\\Users\\Psychology\\Documents\\ABExperiment\\MemoryStudy\\resources\\JPG\\englishcucumber.jpg,C:\\Users\\Psychology\\Documents\\ABExperiment\\MemoryStudy\\resources\\JPG\\,0,103,103,103,,,,,,,34.79427189999842,None,1,0.15286979998927563,34.79427189999842,None,34.79427189999842,None,test,001,2022-06-22_09h41.13.217,MemoryStudy,2022.1.4,59.96551983231222,
Mem,1,frisbee.jpg,P,P,JPG\,frisbee,C:\\Users\\Psychology\\Documents\\ABExperiment\\MemoryStudy\\resources\\JPG\\frisbee.jpg,C:\\Users\\Psychology\\Documents\\ABExperiment\\MemoryStudy\\resources\\JPG\\,0,104,104,104,,,,,,,34.977925800019875,None,1,0.17017739999573678,34.977925800019875,None,34.977925800019875,None,test,001,2022-06-22_09h41.13.217,MemoryStudy,2022.1.4,59.96551983231222,
Mem,1,granolabar01.jpg,P,P,JPG\,granolabar01,C:\\Users\\Psychology\\Documents\\ABExperiment\\MemoryStudy\\resources\\JPG\\granolabar01.jpg,C:\\Users\\Psychology\\Documents\\ABExperiment\\MemoryStudy\\resources\\JPG\\,0,105,105,105,,,,,,,35.17828500000178,None,1,0.1528565000044182,35.17828500000178,None,35.17828500000178,None,test,001,2022-06-22_09h41.13.217,MemoryStudy,2022.1.4,59.96551983231222,
Mem,1,jeans01.jpg,P,P,JPG\,jeans01,C:\\Users\\Psychology\\Documents\\ABExperiment\\MemoryStudy\\resources\\JPG\\jeans01.jpg,C:\\Users\\Psychology\\Documents\\ABExperiment\\MemoryStudy\\resources\\JPG\\,0,106,106,106,,,,,,,35.366100400016876,None,1,0.1491710999980569,35.366100400016876,None,35.366100400016876,None,test,001,2022-06-22_09h41.13.217,MemoryStudy,2022.1.4,59.96551983231222,
Mem,1,jeep.jpg,P,P,JPG\,jeep,C:\\Users\\Psychology\\Documents\\ABExperiment\\MemoryStudy\\resources\\JPG\\jeep.jpg,C:\\Users\\Psychology\\Documents\\ABExperiment\\MemoryStudy\\resources\\JPG\\,0,107,107,107,,,,,,,35.54305680000107,None,1,0.17258220000076108,35.54305680000107,None,35.54305680000107,None,test,001,2022-06-22_09h41.13.217,MemoryStudy,2022.1.4,59.96551983231222,
Mem,1,knee.jpg,P,P,JPG\,knee,C:\\Users\\Psychology\\Documents\\ABExperiment\\MemoryStudy\\resources\\JPG\\knee.jpg,C:\\Users\\Psychology\\Documents\\ABExperiment\\MemoryStudy\\resources\\JPG\\,0,108,108,108,,,,,,,35.74326680001104,None,1,0.17249090000404976,35.74326680001104,None,35.74326680001104,None,test,001,2022-06-22_09h41.13.217,MemoryStudy,2022.1.4,59.96551983231222,
Mem,1,lighthouse.jpg,P,P,JPG\,lighthouse,C:\\Users\\Psychology\\Documents\\ABExperiment\\MemoryStudy\\resources\\JPG\\lighthouse.jpg,C:\\Users\\Psychology\\Documents\\ABExperiment\\MemoryStudy\\resources\\JPG\\,0,109,109,109,,,,,,,35.94338760001119,None,1,0.14784410002175719,35.94338760001119,None,35.94338760001119,None,test,001,2022-06-22_09h41.13.217,MemoryStudy,2022.1.4,59.96551983231222,
Mem,1,lion.jpg,P,P,JPG\,lion,C:\\Users\\Psychology\\Documents\\ABExperiment\\MemoryStudy\\resources\\JPG\\lion.jpg,C:\\Users\\Psychology\\Documents\\ABExperiment\\MemoryStudy\\resources\\JPG\\,0,110,110,110,,,,,,,36.11003780001192,None,1,0.18138870000257157,36.11003780001192,None,36.11003780001192,None,test,001,2022-06-22_09h41.13.217,MemoryStudy,2022.1.4,59.96551983231222,
Mem,1,microphone01.jpg,P,P,JPG\,microphone01,C:\\Users\\Psychology\\Documents\\ABExperiment\\MemoryStudy\\resources\\JPG\\microphone01.jpg,C:\\Users\\Psychology\\Documents\\ABExperiment\\MemoryStudy\\resources\\JPG\\,0,111,111,111,,,,,,,36.31035549999797,None,1,0.18933819999801926,36.31035549999797,None,36.31035549999797,None,test,001,2022-06-22_09h41.13.217,MemoryStudy,2022.1.4,59.96551983231222,
Mem,1,1nose.jpg,P,P,JPG\,1nose,C:\\Users\\Psychology\\Documents\\ABExperiment\\MemoryStudy\\resources\\JPG\\1nose.jpg,C:\\Users\\Psychology\\Documents\\ABExperiment\\MemoryStudy\\resources\\JPG\\,0,112,112,112,,,,,,,36.527258700021775,None,1,0.18038289999822155,36.527258700021775,None,36.527258700021775,None,test,001,2022-06-22_09h41.13.217,MemoryStudy,2022.1.4,59.96551983231222,
Mem,1,ostrich.jpg,P,P,JPG\,ostrich,C:\\Users\\Psychology\\Documents\\ABExperiment\\MemoryStudy\\resources\\JPG\\ostrich.jpg,C:\\Users\\Psychology\\Documents\\ABExperiment\\MemoryStudy\\resources\\JPG\\,0,113,113,113,,,,,,,36.727414599998156,None,1,0.1641022999829147,36.727414599998156,None,36.727414599998156,None,test,001,2022-06-22_09h41.13.217,MemoryStudy,2022.1.4,59.96551983231222,
Mem,1,porcupine.jpg,P,P,JPG\,porcupine,C:\\Users\\Psychology\\Documents\\ABExperiment\\MemoryStudy\\resources\\JPG\\porcupine.jpg,C:\\Users\\Psychology\\Documents\\ABExperiment\\MemoryStudy\\resources\\JPG\\,0,114,114,114,,,,,,,36.91102580001461,None,1,0.1803760000038892,36.91102580001461,None,36.91102580001461,None,test,001,2022-06-22_09h41.13.217,MemoryStudy,2022.1.4,59.96551983231222,
Mem,1,redfox.jpg,P,P,JPG\,redfox,C:\\Users\\Psychology\\Documents\\ABExperiment\\MemoryStudy\\resources\\JPG\\redfox.jpg,C:\\Users\\Psychology\\Documents\\ABExperiment\\MemoryStudy\\resources\\JPG\\,0,115,115,115,,,,,,,37.111195000004955,None,1,0.18808110000099987,37.111195000004955,None,37.111195000004955,None,test,001,2022-06-22_09h41.13.217,MemoryStudy,2022.1.4,59.96551983231222,
Mem,1,seal.jpg,P,P,JPG\,seal,C:\\Users\\Psychology\\Documents\\ABExperiment\\MemoryStudy\\resources\\JPG\\seal.jpg,C:\\Users\\Psychology\\Documents\\ABExperiment\\MemoryStudy\\resources\\JPG\\,0,116,116,116,,,,,,,37.32807390001835,None,1,0.15635000000474975,37.32807390001835,None,37.32807390001835,None,test,001,2022-06-22_09h41.13.217,MemoryStudy,2022.1.4,59.96551983231222,
Mem,1,stool01.jpg,P,P,JPG\,stool01,C:\\Users\\Psychology\\Documents\\ABExperiment\\MemoryStudy\\resources\\JPG\\stool01.jpg,C:\\Users\\Psychology\\Documents\\ABExperiment\\MemoryStudy\\resources\\JPG\\,0,117,117,117,,,,,,,37.511632900015684,None,1,0.15595899999607354,37.511632900015684,None,37.511632900015684,None,test,001,2022-06-22_09h41.13.217,MemoryStudy,2022.1.4,59.96551983231222,
Mem,1,toolbox02.jpg,P,P,JPG\,toolbox02,C:\\Users\\Psychology\\Documents\\ABExperiment\\MemoryStudy\\resources\\JPG\\toolbox02.jpg,C:\\Users\\Psychology\\Documents\\ABExperiment\\MemoryStudy\\resources\\JPG\\,0,118,118,118,,,,,,,37.695112899993546,None,1,0.16431510000256822,37.695112899993546,None,37.695112899993546,None,test,001,2022-06-22_09h41.13.217,MemoryStudy,2022.1.4,59.96551983231222,
Mem,1,treadmill.jpg,P,P,JPG\,treadmill,C:\\Users\\Psychology\\Documents\\ABExperiment\\MemoryStudy\\resources\\JPG\\treadmill.jpg,C:\\Users\\Psychology\\Documents\\ABExperiment\\MemoryStudy\\resources\\JPG\\,0,119,119,119,,,,,,,37.87863419999485,None,1,0.17301289999159053,37.87863419999485,None,37.87863419999485,None,test,001,2022-06-22_09h41.13.217,MemoryStudy,2022.1.4,59.96551983231222,
Mem,1,uprightpiano01.jpg,P,P,JPG\,uprightpiano01,C:\\Users\\Psychology\\Documents\\ABExperiment\\MemoryStudy\\resources\\JPG\\uprightpiano01.jpg,C:\\Users\\Psychology\\Documents\\ABExperiment\\MemoryStudy\\resources\\JPG\\,0,120,120,120,,,,,,,38.078581200010376,None,1,0.1661053000134416,38.078581200010376,None,38.078581200010376,None,test,001,2022-06-22_09h41.13.217,MemoryStudy,2022.1.4,59.96551983231222,
Mem,1,wallclock.jpg,P,P,JPG\,wallclock,C:\\Users\\Psychology\\Documents\\ABExperiment\\MemoryStudy\\resources\\JPG\\wallclock.jpg,C:\\Users\\Psychology\\Documents\\ABExperiment\\MemoryStudy\\resources\\JPG\\,0,121,121,121,,,,,,,38.262344500020845,None,1,0.16541630000574514,38.262344500020845,None,38.262344500020845,None,test,001,2022-06-22_09h41.13.217,MemoryStudy,2022.1.4,59.96551983231222,
Mem,1,horseshoe.jpg,P,P,JPG\,horseshoe,C:\\Users\\Psychology\\Documents\\ABExperiment\\MemoryStudy\\resources\\JPG\\horseshoe.jpg,C:\\Users\\Psychology\\Documents\\ABExperiment\\MemoryStudy\\resources\\JPG\\,0,122,122,122,,,,,,,38.44576980001875,None,1,0.1900317000108771,38.44576980001875,None,38.44576980001875,None,test,001,2022-06-22_09h41.13.217,MemoryStudy,2022.1.4,59.96551983231222,
Mem,1,ant.jpg,P,P,JPG\,ant,C:\\Users\\Psychology\\Documents\\ABExperiment\\MemoryStudy\\resources\\JPG\\ant.jpg,C:\\Users\\Psychology\\Documents\\ABExperiment\\MemoryStudy\\resources\\JPG\\,0,123,123,123,,,,,,,38.66574280001805,None,1,0.16915500001050532,38.66574280001805,None,38.66574280001805,None,test,001,2022-06-22_09h41.13.217,MemoryStudy,2022.1.4,59.96551983231222,
Mem,1,barrel01.jpg,P,P,JPG\,barrel01,C:\\Users\\Psychology\\Documents\\ABExperiment\\MemoryStudy\\resources\\JPG\\barrel01.jpg,C:\\Users\\Psychology\\Documents\\ABExperiment\\MemoryStudy\\resources\\JPG\\,0,124,124,124,,,,,,,38.86607170000207,None,1,0.1696419999934733,38.86607170000207,None,38.86607170000207,None,test,001,2022-06-22_09h41.13.217,MemoryStudy,2022.1.4,59.96551983231222,
Mem,1,bull.jpg,P,P,JPG\,bull,C:\\Users\\Psychology\\Documents\\ABExperiment\\MemoryStudy\\resources\\JPG\\bull.jpg,C:\\Users\\Psychology\\Documents\\ABExperiment\\MemoryStudy\\resources\\JPG\\,0,125,125,125,,,,,,,39.06368570000632,None,1,0.17221400002017617,39.06368570000632,None,39.06368570000632,None,test,001,2022-06-22_09h41.13.217,MemoryStudy,2022.1.4,59.96551983231222,
Mem,1,calendar.jpg,P,P,JPG\,calendar,C:\\Users\\Psychology\\Documents\\ABExperiment\\MemoryStudy\\resources\\JPG\\calendar.jpg,C:\\Users\\Psychology\\Documents\\ABExperiment\\MemoryStudy\\resources\\JPG\\,0,126,126,126,,,,,,,39.26393360001384,None,1,0.1560511999996379,39.26393360001384,None,39.26393360001384,None,test,001,2022-06-22_09h41.13.217,MemoryStudy,2022.1.4,59.96551983231222,
Mem,1,chimney.jpg,P,P,JPG\,chimney,C:\\Users\\Psychology\\Documents\\ABExperiment\\MemoryStudy\\resources\\JPG\\chimney.jpg,C:\\Users\\Psychology\\Documents\\ABExperiment\\MemoryStudy\\resources\\JPG\\,0,127,127,127,,,,,,,39.4473712000181,None,1,0.17955909998272546,39.4473712000181,None,39.4473712000181,None,test,001,2022-06-22_09h41.13.217,MemoryStudy,2022.1.4,59.96551983231222,
Mem,1,christmastree.jpg,P,P,JPG\,christmastree,C:\\Users\\Psychology\\Documents\\ABExperiment\\MemoryStudy\\resources\\JPG\\christmastree.jpg,C:\\Users\\Psychology\\Documents\\ABExperiment\\MemoryStudy\\resources\\JPG\\,0,128,128,128,,,,,,,39.64746279999963,None,1,0.1476531999942381,39.64746279999963,None,39.64746279999963,None,test,001,2022-06-22_09h41.13.217,MemoryStudy,2022.1.4,59.96551983231222,
Mem,1,crown.jpg,P,P,JPG\,crown,C:\\Users\\Psychology\\Documents\\ABExperiment\\MemoryStudy\\resources\\JPG\\crown.jpg,C:\\Users\\Psychology\\Documents\\ABExperiment\\MemoryStudy\\resources\\JPG\\,0,129,129,129,,,,,,,39.81433950000792,None,1,0.1808401999878697,39.81433950000792,None,39.81433950000792,None,test,001,2022-06-22_09h41.13.217,MemoryStudy,2022.1.4,59.96551983231222,
Mem,1,curtain.jpg,P,P,JPG\,curtain,C:\\Users\\Psychology\\Documents\\ABExperiment\\MemoryStudy\\resources\\JPG\\curtain.jpg,C:\\Users\\Psychology\\Documents\\ABExperiment\\MemoryStudy\\resources\\JPG\\,0,130,130,130,,,,,,,40.01441060000798,None,1,0.1725977000023704,40.01441060000798,None,40.01441060000798,None,test,001,2022-06-22_09h41.13.217,MemoryStudy,2022.1.4,59.96551983231222,
Mem,1,daddylonglegs.jpg,P,P,JPG\,daddylonglegs,C:\\Users\\Psychology\\Documents\\ABExperiment\\MemoryStudy\\resources\\JPG\\daddylonglegs.jpg,C:\\Users\\Psychology\\Documents\\ABExperiment\\MemoryStudy\\resources\\JPG\\,0,131,131,131,,,,,,,40.21534019999672,None,1,0.19587339999270625,40.21534019999672,None,40.21534019999672,None,test,001,2022-06-22_09h41.13.217,MemoryStudy,2022.1.4,59.96551983231222,
Mem,5,elbow.jpg,P,P,JPG\,elbow,C:\\Users\\Psychology\\Documents\\ABExperiment\\MemoryStudy\\resources\\JPG\\elbow.jpg,C:\\Users\\Psychology\\Documents\\ABExperiment\\MemoryStudy\\resources\\JPG\\,0,132,132,132,,,,,,,40.43153460000758,None,1,0.195540799992159,40.43153460000758,None,40.43153460000758,None,test,001,2022-06-22_09h41.13.217,MemoryStudy,2022.1.4,59.96551983231222,
Mem,5,fireplace.jpg,P,P,JPG\,fireplace,C:\\Users\\Psychology\\Documents\\ABExperiment\\MemoryStudy\\resources\\JPG\\fireplace.jpg,C:\\Users\\Psychology\\Documents\\ABExperiment\\MemoryStudy\\resources\\JPG\\,0,133,133,133,,,,,,,40.65068550000433,None,1,0.184532199986279,40.65068550000433,None,40.65068550000433,None,test,001,2022-06-22_09h41.13.217,MemoryStudy,2022.1.4,59.96551983231222,
Mem,5,greywolf.jpg,P,P,JPG\,greywolf,C:\\Users\\Psychology\\Documents\\ABExperiment\\MemoryStudy\\resources\\JPG\\greywolf.jpg,C:\\Users\\Psychology\\Documents\\ABExperiment\\MemoryStudy\\resources\\JPG\\,0,134,134,134,,,,,,,40.865567500004545,None,1,0.1696417999919504,40.865567500004545,None,40.865567500004545,None,test,001,2022-06-22_09h41.13.217,MemoryStudy,2022.1.4,59.96551983231222,
Mem,5,jackrabbit.jpg,P,P,JPG\,jackrabbit,C:\\Users\\Psychology\\Documents\\ABExperiment\\MemoryStudy\\resources\\JPG\\jackrabbit.jpg,C:\\Users\\Psychology\\Documents\\ABExperiment\\MemoryStudy\\resources\\JPG\\,0,135,135,135,,,,,,,41.06550270001753,None,1,0.15385190001688898,41.06550270001753,None,41.06550270001753,None,test,001,2022-06-22_09h41.13.217,MemoryStudy,2022.1.4,59.96551983231222,
Mem,5,jellyfish.jpg,P,P,JPG\,jellyfish,C:\\Users\\Psychology\\Documents\\ABExperiment\\MemoryStudy\\resources\\JPG\\jellyfish.jpg,C:\\Users\\Psychology\\Documents\\ABExperiment\\MemoryStudy\\resources\\JPG\\,0,136,136,136,,,,,,,41.24910180000006,None,1,0.1540138999989722,41.24910180000006,None,41.24910180000006,None,test,001,2022-06-22_09h41.13.217,MemoryStudy,2022.1.4,59.96551983231222,
Mem,5,leafrake.jpg,P,P,JPG\,leafrake,C:\\Users\\Psychology\\Documents\\ABExperiment\\MemoryStudy\\resources\\JPG\\leafrake.jpg,C:\\Users\\Psychology\\Documents\\ABExperiment\\MemoryStudy\\resources\\JPG\\,0,137,137,137,,,,,,,41.432758000009926,None,1,0.1632400999951642,41.432758000009926,None,41.432758000009926,None,test,001,2022-06-22_09h41.13.217,MemoryStudy,2022.1.4,59.96551983231222,
Mem,5,motorcycle.jpg,P,P,JPG\,motorcycle,C:\\Users\\Psychology\\Documents\\ABExperiment\\MemoryStudy\\resources\\JPG\\motorcycle.jpg,C:\\Users\\Psychology\\Documents\\ABExperiment\\MemoryStudy\\resources\\JPG\\,0,138,138,138,,,,,,,41.616488900006516,None,1,0.17047199999797158,41.616488900006516,None,41.616488900006516,None,test,001,2022-06-22_09h41.13.217,MemoryStudy,2022.1.4,59.96551983231222,
Mem,5,mouse.jpg,P,P,JPG\,mouse,C:\\Users\\Psychology\\Documents\\ABExperiment\\MemoryStudy\\resources\\JPG\\mouse.jpg,C:\\Users\\Psychology\\Documents\\ABExperiment\\MemoryStudy\\resources\\JPG\\,0,139,139,139,,,,,,,41.81631320001907,None,1,0.1705268000077922,41.81631320001907,None,41.81631320001907,None,test,001,2022-06-22_09h41.13.217,MemoryStudy,2022.1.4,59.96551983231222,
Mem,5,lip.jpg,P,P,JPG\,lip,C:\\Users\\Psychology\\Documents\\ABExperiment\\MemoryStudy\\resources\\JPG\\lip.jpg,C:\\Users\\Psychology\\Documents\\ABExperiment\\MemoryStudy\\resources\\JPG\\,0,140,140,140,,,,,,,42.01641240000026,None,1,0.1785671999969054,42.01641240000026,None,42.01641240000026,None,test,001,2022-06-22_09h41.13.217,MemoryStudy,2022.1.4,59.96551983231222,
Mem,5,mummy.jpg,P,P,JPG\,mummy,C:\\Users\\Psychology\\Documents\\ABExperiment\\MemoryStudy\\resources\\JPG\\mummy.jpg,C:\\Users\\Psychology\\Documents\\ABExperiment\\MemoryStudy\\resources\\JPG\\,0,141,141,141,,,,,,,42.21676470001694,None,1,0.17019340000115335,42.21676470001694,None,42.21676470001694,None,test,001,2022-06-22_09h41.13.217,MemoryStudy,2022.1.4,59.96551983231222,
Mem,5,saltshaker03a.jpg,P,P,JPG\,saltshaker03a,C:\\Users\\Psychology\\Documents\\ABExperiment\\MemoryStudy\\resources\\JPG\\saltshaker03a.jpg,C:\\Users\\Psychology\\Documents\\ABExperiment\\MemoryStudy\\resources\\JPG\\,0,142,142,142,,,,,,,42.41682710000896,None,1,0.1623113000241574,42.41682710000896,None,42.41682710000896,None,test,001,2022-06-22_09h41.13.217,MemoryStudy,2022.1.4,59.96551983231222,
Mem,5,scorpion.jpg,P,P,JPG\,scorpion,C:\\Users\\Psychology\\Documents\\ABExperiment\\MemoryStudy\\resources\\JPG\\scorpion.jpg,C:\\Users\\Psychology\\Documents\\ABExperiment\\MemoryStudy\\resources\\JPG\\,0,143,143,143,,,,,,,42.600696900015464,None,1,0.16255070001352578,42.600696900015464,None,42.600696900015464,None,test,001,2022-06-22_09h41.13.217,MemoryStudy,2022.1.4,59.96551983231222,
Mem,5,showerhead01.jpg,P,P,JPG\,showerhead01,C:\\Users\\Psychology\\Documents\\ABExperiment\\MemoryStudy\\resources\\JPG\\showerhead01.jpg,C:\\Users\\Psychology\\Documents\\ABExperiment\\MemoryStudy\\resources\\JPG\\,0,144,144,144,,,,,,,42.78396580001572,None,1,0.1872970999975223,42.78396580001572,None,42.78396580001572,None,test,001,2022-06-22_09h41.13.217,MemoryStudy,2022.1.4,59.96551983231222,
Mem,5,floorlamp.jpg,P,P,JPG\,floorlamp,C:\\Users\\Psychology\\Documents\\ABExperiment\\MemoryStudy\\resources\\JPG\\floorlamp.jpg,C:\\Users\\Psychology\\Documents\\ABExperiment\\MemoryStudy\\resources\\JPG\\,0,145,145,145,,,,,,,43.00067720000516,None,1,0.18655199999921024,43.00067720000516,None,43.00067720000516,None,test,001,2022-06-22_09h41.13.217,MemoryStudy,2022.1.4,59.96551983231222,
Mem,5,statue.jpg,P,P,JPG\,statue,C:\\Users\\Psychology\\Documents\\ABExperiment\\MemoryStudy\\resources\\JPG\\statue.jpg,C:\\Users\\Psychology\\Documents\\ABExperiment\\MemoryStudy\\resources\\JPG\\,0,146,146,146,,,,,,,43.217614199995296,None,1,0.16954900001292117,43.217614199995296,None,43.217614199995296,None,test,001,2022-06-22_09h41.13.217,MemoryStudy,2022.1.4,59.96551983231222,
Mem,5,witchhat.jpg,P,P,JPG\,witchhat,C:\\Users\\Psychology\\Documents\\ABExperiment\\MemoryStudy\\resources\\JPG\\witchhat.jpg,C:\\Users\\Psychology\\Documents\\ABExperiment\\MemoryStudy\\resources\\JPG\\,0,147,147,147,,,,,,,43.41774850001093,None,1,0.1692670999909751,43.41774850001093,None,43.41774850001093,None,test,001,2022-06-22_09h41.13.217,MemoryStudy,2022.1.4,59.96551983231222,
Mem,5,cigar.jpg,P,P,JPG\,cigar,C:\\Users\\Psychology\\Documents\\ABExperiment\\MemoryStudy\\resources\\JPG\\cigar.jpg,C:\\Users\\Psychology\\Documents\\ABExperiment\\MemoryStudy\\resources\\JPG\\,0,148,148,148,,,,,,,43.617952800006606,None,1,0.16116009998950176,43.617952800006606,None,43.617952800006606,None,test,001,2022-06-22_09h41.13.217,MemoryStudy,2022.1.4,59.96551983231222,
Mem,5,banjo.jpg,P,P,JPG\,banjo,C:\\Users\\Psychology\\Documents\\ABExperiment\\MemoryStudy\\resources\\JPG\\banjo.jpg,C:\\Users\\Psychology\\Documents\\ABExperiment\\MemoryStudy\\resources\\JPG\\,0,149,149,149,,,,,,,43.80154869999387,None,1,0.16955469999811612,43.80154869999387,None,43.80154869999387,None,test,001,2022-06-22_09h41.13.217,MemoryStudy,2022.1.4,59.96551983231222,
Mem,5,bathtub.jpg,P,P,JPG\,bathtub,C:\\Users\\Psychology\\Documents\\ABExperiment\\MemoryStudy\\resources\\JPG\\bathtub.jpg,C:\\Users\\Psychology\\Documents\\ABExperiment\\MemoryStudy\\resources\\JPG\\,0,150,150,150,,,,,,,44.00175470000249,None,1,0.17058549998910166,44.00175470000249,None,44.00175470000249,None,test,001,2022-06-22_09h41.13.217,MemoryStudy,2022.1.4,59.96551983231222,
Mem,5,bumpercar.jpg,P,P,JPG\,bumpercar,C:\\Users\\Psychology\\Documents\\ABExperiment\\MemoryStudy\\resources\\JPG\\bumpercar.jpg,C:\\Users\\Psychology\\Documents\\ABExperiment\\MemoryStudy\\resources\\JPG\\,0,151,151,151,,,,,,,44.20839569999953,None,1,0.17901870000059716,44.20839569999953,None,44.20839569999953,None,test,001,2022-06-22_09h41.13.217,MemoryStudy,2022.1.4,59.96551983231222,
Mem,5,cruiseship.jpg,P,P,JPG\,cruiseship,C:\\Users\\Psychology\\Documents\\ABExperiment\\MemoryStudy\\resources\\JPG\\cruiseship.jpg,C:\\Users\\Psychology\\Documents\\ABExperiment\\MemoryStudy\\resources\\JPG\\,0,152,152,152,,,,,,,44.42027750000125,None,1,0.15943319999496453,44.42027750000125,None,44.42027750000125,None,test,001,2022-06-22_09h41.13.217,MemoryStudy,2022.1.4,59.96551983231222,
Mem,5,downhillski.jpg,P,P,JPG\,downhillski,C:\\Users\\Psychology\\Documents\\ABExperiment\\MemoryStudy\\resources\\JPG\\downhillski.jpg,C:\\Users\\Psychology\\Documents\\ABExperiment\\MemoryStudy\\resources\\JPG\\,0,153,153,153,,,,,,,44.72865840001032,None,1,0.051471499988110736,44.72865840001032,None,44.72865840001032,None,test,001,2022-06-22_09h41.13.217,MemoryStudy,2022.1.4,59.96551983231222,
Mem,5,ear.jpg,P,P,JPG\,ear,C:\\Users\\Psychology\\Documents\\ABExperiment\\MemoryStudy\\resources\\JPG\\ear.jpg,C:\\Users\\Psychology\\Documents\\ABExperiment\\MemoryStudy\\resources\\JPG\\,0,154,154,154,,,,,,,44.80490600000485,None,1,0.1752003000001423,44.80490600000485,None,44.80490600000485,None,test,001,2022-06-22_09h41.13.217,MemoryStudy,2022.1.4,59.96551983231222,
Mem,5,eyepatch.jpg,P,P,JPG\,eyepatch,C:\\Users\\Psychology\\Documents\\ABExperiment\\MemoryStudy\\resources\\JPG\\eyepatch.jpg,C:\\Users\\Psychology\\Documents\\ABExperiment\\MemoryStudy\\resources\\JPG\\,0,155,155,155,,,,,,,45.00516560001415,None,1,0.15851779998047277,45.00516560001415,None,45.00516560001415,None,test,001,2022-06-22_09h41.13.217,MemoryStudy,2022.1.4,59.96551983231222,
Mem,5,funnel.jpg,P,P,JPG\,funnel,C:\\Users\\Psychology\\Documents\\ABExperiment\\MemoryStudy\\resources\\JPG\\funnel.jpg,C:\\Users\\Psychology\\Documents\\ABExperiment\\MemoryStudy\\resources\\JPG\\,0,156,156,156,,,,,,,45.18856360000791,None,1,0.18259469998884015,45.18856360000791,None,45.18856360000791,None,test,001,2022-06-22_09h41.13.217,MemoryStudy,2022.1.4,59.96551983231222,
Mem,5,hockeypuck.jpg,P,P,JPG\,hockeypuck,C:\\Users\\Psychology\\Documents\\ABExperiment\\MemoryStudy\\resources\\JPG\\hockeypuck.jpg,C:\\Users\\Psychology\\Documents\\ABExperiment\\MemoryStudy\\resources\\JPG\\,0,157,157,157,,,,,,,45.40531090000877,None,1,0.16672839998500422,45.40531090000877,None,45.40531090000877,None,test,001,2022-06-22_09h41.13.217,MemoryStudy,2022.1.4,59.96551983231222,
Mem,5,kiwi03.jpg,P,P,JPG\,kiwi03,C:\\Users\\Psychology\\Documents\\ABExperiment\\MemoryStudy\\resources\\JPG\\kiwi03.jpg,C:\\Users\\Psychology\\Documents\\ABExperiment\\MemoryStudy\\resources\\JPG\\,0,158,158,158,,,,,,,45.60540500000934,None,1,0.1668274000112433,45.60540500000934,None,45.60540500000934,None,test,001,2022-06-22_09h41.13.217,MemoryStudy,2022.1.4,59.96551983231222,
Mem,5,lollipop04.jpg,P,P,JPG\,lollipop04,C:\\Users\\Psychology\\Documents\\ABExperiment\\MemoryStudy\\resources\\JPG\\lollipop04.jpg,C:\\Users\\Psychology\\Documents\\ABExperiment\\MemoryStudy\\resources\\JPG\\,0,159,159,159,,,,,,,45.805456400004914,None,1,0.17392800000379793,45.805456400004914,None,45.805456400004914,None,test,001,2022-06-22_09h41.13.217,MemoryStudy,2022.1.4,59.96551983231222,
Mem,5,postalmailbox01.jpg,P,P,JPG\,postalmailbox01,C:\\Users\\Psychology\\Documents\\ABExperiment\\MemoryStudy\\resources\\JPG\\postalmailbox01.jpg,C:\\Users\\Psychology\\Documents\\ABExperiment\\MemoryStudy\\resources\\JPG\\,0,160,160,160,,,,,,,46.089589100010926,None,1,0.09050950000528246,46.089589100010926,None,46.089589100010926,None,test,001,2022-06-22_09h41.13.217,MemoryStudy,2022.1.4,59.96551983231222,
Mem,5,parachute.jpg,P,P,JPG\,parachute,C:\\Users\\Psychology\\Documents\\ABExperiment\\MemoryStudy\\resources\\JPG\\parachute.jpg,C:\\Users\\Psychology\\Documents\\ABExperiment\\MemoryStudy\\resources\\JPG\\,0,161,161,161,,,,,,,46.20831060002092,None,1,0.1716528999968432,46.20831060002092,None,46.20831060002092,None,test,001,2022-06-22_09h41.13.217,MemoryStudy,2022.1.4,59.96551983231222,
Mem,5,rockbass.jpg,P,P,JPG\,rockbass,C:\\Users\\Psychology\\Documents\\ABExperiment\\MemoryStudy\\resources\\JPG\\rockbass.jpg,C:\\Users\\Psychology\\Documents\\ABExperiment\\MemoryStudy\\resources\\JPG\\,0,162,162,162,,,,,,,46.49825730000157,None,1,0.07410080000408925,46.49825730000157,None,46.49825730000157,None,test,001,2022-06-22_09h41.13.217,MemoryStudy,2022.1.4,59.96551983231222,
Mem,5,rollerblade.jpg,P,P,JPG\,rollerblade,C:\\Users\\Psychology\\Documents\\ABExperiment\\MemoryStudy\\resources\\JPG\\rollerblade.jpg,C:\\Users\\Psychology\\Documents\\ABExperiment\\MemoryStudy\\resources\\JPG\\,0,163,163,163,,,,,,,46.60675860001356,None,1,0.15667549998033792,46.60675860001356,None,46.60675860001356,None,test,001,2022-06-22_09h41.13.217,MemoryStudy,2022.1.4,59.96551983231222,
Mem,5,saxophone.jpg,P,P,JPG\,saxophone,C:\\Users\\Psychology\\Documents\\ABExperiment\\MemoryStudy\\resources\\JPG\\saxophone.jpg,C:\\Users\\Psychology\\Documents\\ABExperiment\\MemoryStudy\\resources\\JPG\\,0,164,164,164,,,,,,,46.79013870001654,None,1,0.16529640002408996,46.79013870001654,None,46.79013870001654,None,test,001,2022-06-22_09h41.13.217,MemoryStudy,2022.1.4,59.96551983231222,
Mem,5,scooter.jpg,P,P,JPG\,scooter,C:\\Users\\Psychology\\Documents\\ABExperiment\\MemoryStudy\\resources\\JPG\\scooter.jpg,C:\\Users\\Psychology\\Documents\\ABExperiment\\MemoryStudy\\resources\\JPG\\,0,165,165,165,,,,,,,46.990166500007035,None,1,0.16584879998117685,46.990166500007035,None,46.990166500007035,None,test,001,2022-06-22_09h41.13.217,MemoryStudy,2022.1.4,59.96551983231222,
Mem,5,stepladder.jpg,P,P,JPG\,stepladder,C:\\Users\\Psychology\\Documents\\ABExperiment\\MemoryStudy\\resources\\JPG\\stepladder.jpg,C:\\Users\\Psychology\\Documents\\ABExperiment\\MemoryStudy\\resources\\JPG\\,0,166,166,166,,,,,,,47.270623599993996,None,1,0.09291390000726096,47.270623599993996,None,47.270623599993996,None,test,001,2022-06-22_09h41.13.217,MemoryStudy,2022.1.4,59.96551983231222,
Mem,5,licenseplate.jpg,P,P,JPG\,licenseplate,C:\\Users\\Psychology\\Documents\\ABExperiment\\MemoryStudy\\resources\\JPG\\licenseplate.jpg,C:\\Users\\Psychology\\Documents\\ABExperiment\\MemoryStudy\\resources\\JPG\\,0,167,167,167,,,,,,,47.38741290001781,None,1,0.17558520002057776,47.38741290001781,None,47.38741290001781,None,test,001,2022-06-22_09h41.13.217,MemoryStudy,2022.1.4,59.96551983231222,
Mem,5,shower.jpg,P,P,JPG\,shower,C:\\Users\\Psychology\\Documents\\ABExperiment\\MemoryStudy\\resources\\JPG\\shower.jpg,C:\\Users\\Psychology\\Documents\\ABExperiment\\MemoryStudy\\resources\\JPG\\,0,168,168,168,,,,,,,47.591523000010056,None,1,0.17928089998895302,47.591523000010056,None,47.591523000010056,None,test,001,2022-06-22_09h41.13.217,MemoryStudy,2022.1.4,59.96551983231222,
Mem,5,stubbywrench01a.jpg,P,P,JPG\,stubbywrench01a,C:\\Users\\Psychology\\Documents\\ABExperiment\\MemoryStudy\\resources\\JPG\\stubbywrench01a.jpg,C:\\Users\\Psychology\\Documents\\ABExperiment\\MemoryStudy\\resources\\JPG\\,0,169,169,169,,,,,,,47.78880629999912,None,1,0.19901290000416338,47.78880629999912,None,47.78880629999912,None,test,001,2022-06-22_09h41.13.217,MemoryStudy,2022.1.4,59.96551983231222,
Mem,5,baseballbat.jpg,P,P,JPG\,baseballbat,C:\\Users\\Psychology\\Documents\\ABExperiment\\MemoryStudy\\resources\\JPG\\baseballbat.jpg,C:\\Users\\Psychology\\Documents\\ABExperiment\\MemoryStudy\\resources\\JPG\\,0,170,170,170,,,,,,,48.00576660002116,None,1,0.17330350002157502,48.00576660002116,None,48.00576660002116,None,test,001,2022-06-22_09h41.13.217,MemoryStudy,2022.1.4,59.96551983231222,
Mem,5,bed.jpg,P,P,JPG\,bed,C:\\Users\\Psychology\\Documents\\ABExperiment\\MemoryStudy\\resources\\JPG\\bed.jpg,C:\\Users\\Psychology\\Documents\\ABExperiment\\MemoryStudy\\resources\\JPG\\,0,171,171,171,,,,,,,48.20770870000706,None,1,0.17228780000004917,48.20770870000706,None,48.20770870000706,None,test,001,2022-06-22_09h41.13.217,MemoryStudy,2022.1.4,59.96551983231222,
Mem,5,foldingchair.jpg,P,P,JPG\,foldingchair,C:\\Users\\Psychology\\Documents\\ABExperiment\\MemoryStudy\\resources\\JPG\\foldingchair.jpg,C:\\Users\\Psychology\\Documents\\ABExperiment\\MemoryStudy\\resources\\JPG\\,0,172,172,172,,,,,,,48.40778969999519,None,1,0.17950150000979193,48.40778969999519,None,48.40778969999519,None,test,001,2022-06-22_09h41.13.217,MemoryStudy,2022.1.4,59.96551983231222,
Mem,5,butterfly.jpg,P,P,JPG\,butterfly,C:\\Users\\Psychology\\Documents\\ABExperiment\\MemoryStudy\\resources\\JPG\\butterfly.jpg,C:\\Users\\Psychology\\Documents\\ABExperiment\\MemoryStudy\\resources\\JPG\\,0,173,173,173,,,,,,,48.60835990001215,None,1,0.163031600008253,48.60835990001215,None,48.60835990001215,None,test,001,2022-06-22_09h41.13.217,MemoryStudy,2022.1.4,59.96551983231222,
Mem,5,car.jpg,P,P,JPG\,car,C:\\Users\\Psychology\\Documents\\ABExperiment\\MemoryStudy\\resources\\JPG\\car.jpg,C:\\Users\\Psychology\\Documents\\ABExperiment\\MemoryStudy\\resources\\JPG\\,0,174,174,174,,,,,,,48.79187380001531,None,1,0.17947889998322353,48.79187380001531,None,48.79187380001531,None,test,001,2022-06-22_09h41.13.217,MemoryStudy,2022.1.4,59.96551983231222,
Mem,5,chefshat.jpg,P,P,JPG\,chefshat,C:\\Users\\Psychology\\Documents\\ABExperiment\\MemoryStudy\\resources\\JPG\\chefshat.jpg,C:\\Users\\Psychology\\Documents\\ABExperiment\\MemoryStudy\\resources\\JPG\\,0,175,175,175,,,,,,,48.99188370001502,None,1,0.17969230000744574,48.99188370001502,None,48.99188370001502,None,test,001,2022-06-22_09h41.13.217,MemoryStudy,2022.1.4,59.96551983231222,
Mem,5,church.jpg,P,P,JPG\,church,C:\\Users\\Psychology\\Documents\\ABExperiment\\MemoryStudy\\resources\\JPG\\church.jpg,C:\\Users\\Psychology\\Documents\\ABExperiment\\MemoryStudy\\resources\\JPG\\,0,176,176,176,,,,,,,49.19228310001199,None,1,0.18029759998898953,49.19228310001199,None,49.19228310001199,None,test,001,2022-06-22_09h41.13.217,MemoryStudy,2022.1.4,59.96551983231222,
Mem,5,duck01.jpg,P,P,JPG\,duck01,C:\\Users\\Psychology\\Documents\\ABExperiment\\MemoryStudy\\resources\\JPG\\duck01.jpg,C:\\Users\\Psychology\\Documents\\ABExperiment\\MemoryStudy\\resources\\JPG\\,0,177,177,177,,,,,,,49.392381200013915,None,1,0.17120549999526702,49.392381200013915,None,49.392381200013915,None,test,001,2022-06-22_09h41.13.217,MemoryStudy,2022.1.4,59.96551983231222,
Mem,5,hand01b.jpg,P,P,JPG\,hand01b,C:\\Users\\Psychology\\Documents\\ABExperiment\\MemoryStudy\\resources\\JPG\\hand01b.jpg,C:\\Users\\Psychology\\Documents\\ABExperiment\\MemoryStudy\\resources\\JPG\\,0,178,178,178,,,,,,,49.59249470001669,None,1,0.1789031999942381,49.59249470001669,None,49.59249470001669,None,test,001,2022-06-22_09h41.13.217,MemoryStudy,2022.1.4,59.96551983231222,
Mem,5,hibiscusflower02.jpg,P,P,JPG\,hibiscusflower02,C:\\Users\\Psychology\\Documents\\ABExperiment\\MemoryStudy\\resources\\JPG\\hibiscusflower02.jpg,C:\\Users\\Psychology\\Documents\\ABExperiment\\MemoryStudy\\resources\\JPG\\,0,179,179,179,,,,,,,49.87906890001614,None,1,0.08464690000982955,49.87906890001614,None,49.87906890001614,None,test,001,2022-06-22_09h41.13.217,MemoryStudy,2022.1.4,59.96551983231222,
Mem,5,holdfast.jpg,P,P,JPG\,holdfast,C:\\Users\\Psychology\\Documents\\ABExperiment\\MemoryStudy\\resources\\JPG\\holdfast.jpg,C:\\Users\\Psychology\\Documents\\ABExperiment\\MemoryStudy\\resources\\JPG\\,0,180,180,180,,,,,,,49.993357500003185,None,1,0.17023419999168254,49.993357500003185,None,49.993357500003185,None,test,001,2022-06-22_09h41.13.217,MemoryStudy,2022.1.4,59.96551983231222,
Mem,5,lily.jpg,P,P,JPG\,lily,C:\\Users\\Psychology\\Documents\\ABExperiment\\MemoryStudy\\resources\\JPG\\lily.jpg,C:\\Users\\Psychology\\Documents\\ABExperiment\\MemoryStudy\\resources\\JPG\\,0,181,181,181,,,,,,,50.19320599999628,None,1,0.17826019998756237,50.19320599999628,None,50.19320599999628,None,test,001,2022-06-22_09h41.13.217,MemoryStudy,2022.1.4,59.96551983231222,
Mem,5,makiroll.jpg,P,P,JPG\,makiroll,C:\\Users\\Psychology\\Documents\\ABExperiment\\MemoryStudy\\resources\\JPG\\makiroll.jpg,C:\\Users\\Psychology\\Documents\\ABExperiment\\MemoryStudy\\resources\\JPG\\,0,182,182,182,,,,,,,50.393412300007185,None,1,0.1933466999907978,50.393412300007185,None,50.393412300007185,None,test,001,2022-06-22_09h41.13.217,MemoryStudy,2022.1.4,59.96551983231222,
Mem,5,microwave.jpg,P,P,JPG\,microwave,C:\\Users\\Psychology\\Documents\\ABExperiment\\MemoryStudy\\resources\\JPG\\microwave.jpg,C:\\Users\\Psychology\\Documents\\ABExperiment\\MemoryStudy\\resources\\JPG\\,0,183,183,183,,,,,,,50.6101323000039,None,1,0.16910680002183653,50.6101323000039,None,50.6101323000039,None,test,001,2022-06-22_09h41.13.217,MemoryStudy,2022.1.4,59.96551983231222,
Mem,5,penguin.jpg,P,P,JPG\,penguin,C:\\Users\\Psychology\\Documents\\ABExperiment\\MemoryStudy\\resources\\JPG\\penguin.jpg,C:\\Users\\Psychology\\Documents\\ABExperiment\\MemoryStudy\\resources\\JPG\\,0,184,184,184,,,,,,,50.810346300015226,None,1,0.16898210000363179,50.810346300015226,None,50.810346300015226,None,test,001,2022-06-22_09h41.13.217,MemoryStudy,2022.1.4,59.96551983231222,
Mem,5,smokingpipe.jpg,P,P,JPG\,smokingpipe,C:\\Users\\Psychology\\Documents\\ABExperiment\\MemoryStudy\\resources\\JPG\\smokingpipe.jpg,C:\\Users\\Psychology\\Documents\\ABExperiment\\MemoryStudy\\resources\\JPG\\,0,185,185,185,,,,,,,51.01044720000937,None,1,0.16168109999853186,51.01044720000937,None,51.01044720000937,None,test,001,2022-06-22_09h41.13.217,MemoryStudy,2022.1.4,59.96551983231222,
Mem,5,shovel01.jpg,P,P,JPG\,shovel01,C:\\Users\\Psychology\\Documents\\ABExperiment\\MemoryStudy\\resources\\JPG\\shovel01.jpg,C:\\Users\\Psychology\\Documents\\ABExperiment\\MemoryStudy\\resources\\JPG\\,0,186,186,186,,,,,,,51.19392510000034,None,1,0.19323889998486266,51.19392510000034,None,51.19392510000034,None,test,001,2022-06-22_09h41.13.217,MemoryStudy,2022.1.4,59.96551983231222,
Mem,5,spicerack.jpg,P,P,JPG\,spicerack,C:\\Users\\Psychology\\Documents\\ABExperiment\\MemoryStudy\\resources\\JPG\\spicerack.jpg,C:\\Users\\Psychology\\Documents\\ABExperiment\\MemoryStudy\\resources\\JPG\\,0,187,187,187,,,,,,,51.40879460002179,None,1,0.1704269000038039,51.40879460002179,None,51.40879460002179,None,test,001,2022-06-22_09h41.13.217,MemoryStudy,2022.1.4,59.96551983231222,
Mem,5,athleticsock.jpg,P,P,JPG\,athleticsock,C:\\Users\\Psychology\\Documents\\ABExperiment\\MemoryStudy\\resources\\JPG\\athleticsock.jpg,C:\\Users\\Psychology\\Documents\\ABExperiment\\MemoryStudy\\resources\\JPG\\,0,188,188,188,,,,,,,51.60896650000359,None,1,0.178373599977931,51.60896650000359,None,51.60896650000359,None,test,001,2022-06-22_09h41.13.217,MemoryStudy,2022.1.4,59.96551983231222,
Mem,5,surfboard.jpg,P,P,JPG\,surfboard,C:\\Users\\Psychology\\Documents\\ABExperiment\\MemoryStudy\\resources\\JPG\\surfboard.jpg,C:\\Users\\Psychology\\Documents\\ABExperiment\\MemoryStudy\\resources\\JPG\\,0,189,189,189,,,,,,,51.81220519999624,None,1,0.1833731000078842,51.81220519999624,None,51.81220519999624,None,test,001,2022-06-22_09h41.13.217,MemoryStudy,2022.1.4,59.96551983231222,
Mem,5,sword01.jpg,P,P,JPG\,sword01,C:\\Users\\Psychology\\Documents\\ABExperiment\\MemoryStudy\\resources\\JPG\\sword01.jpg,C:\\Users\\Psychology\\Documents\\ABExperiment\\MemoryStudy\\resources\\JPG\\,0,190,190,190,,,,,,,52.03033249999862,None,1,0.16444319998845458,52.03033249999862,None,52.03033249999862,None,test,001,2022-06-22_09h41.13.217,MemoryStudy,2022.1.4,59.96551983231222,
Mem,5,table01.jpg,P,P,JPG\,table01,C:\\Users\\Psychology\\Documents\\ABExperiment\\MemoryStudy\\resources\\JPG\\table01.jpg,C:\\Users\\Psychology\\Documents\\ABExperiment\\MemoryStudy\\resources\\JPG\\,0,191,191,191,,,,,,,52.226138199999696,None,1,0.16209309999248944,52.226138199999696,None,52.226138199999696,None,test,001,2022-06-22_09h41.13.217,MemoryStudy,2022.1.4,59.96551983231222,
Mem,5,trumpet.jpg,P,P,JPG\,trumpet,C:\\Users\\Psychology\\Documents\\ABExperiment\\MemoryStudy\\resources\\JPG\\trumpet.jpg,C:\\Users\\Psychology\\Documents\\ABExperiment\\MemoryStudy\\resources\\JPG\\,0,192,192,192,,,,,,,52.40987570001744,None,1,0.1857515000156127,52.40987570001744,None,52.40987570001744,None,test,001,2022-06-22_09h41.13.217,MemoryStudy,2022.1.4,59.96551983231222,
Mem,5,marble.jpg,P,P,JPG\,marble,C:\\Users\\Psychology\\Documents\\ABExperiment\\MemoryStudy\\resources\\JPG\\marble.jpg,C:\\Users\\Psychology\\Documents\\ABExperiment\\MemoryStudy\\resources\\JPG\\,0,193,193,193,,,,,,,52.626543699996546,None,1,0.18435160000808537,52.626543699996546,None,52.626543699996546,None,test,001,2022-06-22_09h41.13.217,MemoryStudy,2022.1.4,59.96551983231222,
Mem,5,callbell.jpg,P,P,JPG\,callbell,C:\\Users\\Psychology\\Documents\\ABExperiment\\MemoryStudy\\resources\\JPG\\callbell.jpg,C:\\Users\\Psychology\\Documents\\ABExperiment\\MemoryStudy\\resources\\JPG\\,0,194,194,194,,,,,,,52.84642370001529,None,1,0.14844930000253953,52.84642370001529,None,52.84642370001529,None,test,001,2022-06-22_09h41.13.217,MemoryStudy,2022.1.4,59.96551983231222,
Mem,5,footballhelmet.jpg,P,P,JPG\,footballhelmet,C:\\Users\\Psychology\\Documents\\ABExperiment\\MemoryStudy\\resources\\JPG\\footballhelmet.jpg,C:\\Users\\Psychology\\Documents\\ABExperiment\\MemoryStudy\\resources\\JPG\\,0,195,195,195,,,,,,,53.030059800017625,None,1,0.1586611999955494,53.030059800017625,None,53.030059800017625,None,test,001,2022-06-22_09h41.13.217,MemoryStudy,2022.1.4,59.96551983231222,
Mem,5,honeybee.jpg,P,P,JPG\,honeybee,C:\\Users\\Psychology\\Documents\\ABExperiment\\MemoryStudy\\resources\\JPG\\honeybee.jpg,C:\\Users\\Psychology\\Documents\\ABExperiment\\MemoryStudy\\resources\\JPG\\,0,196,196,196,,,,,,,53.21355780001613,None,1,0.18138840000028722,53.21355780001613,None,53.21355780001613,None,test,001,2022-06-22_09h41.13.217,MemoryStudy,2022.1.4,59.96551983231222,
Mem,5,ipad02.jpg,P,P,JPG\,ipad02,C:\\Users\\Psychology\\Documents\\ABExperiment\\MemoryStudy\\resources\\JPG\\ipad02.jpg,C:\\Users\\Psychology\\Documents\\ABExperiment\\MemoryStudy\\resources\\JPG\\,0,197,197,197,,,,,,,53.430369700014126,None,1,0.16565670000272803,53.430369700014126,None,53.430369700014126,None,test,001,2022-06-22_09h41.13.217,MemoryStudy,2022.1.4,59.96551983231222,
Mem,5,pigeon.jpg,P,P,JPG\,pigeon,C:\\Users\\Psychology\\Documents\\ABExperiment\\MemoryStudy\\resources\\JPG\\pigeon.jpg,C:\\Users\\Psychology\\Documents\\ABExperiment\\MemoryStudy\\resources\\JPG\\,0,198,198,198,,,,,,,53.63055620001978,None,1,0.18183750001480803,53.63055620001978,None,53.63055620001978,None,test,001,2022-06-22_09h41.13.217,MemoryStudy,2022.1.4,59.96551983231222,
Mem,5,pingpongtable.jpg,P,P,JPG\,pingpongtable,C:\\Users\\Psychology\\Documents\\ABExperiment\\MemoryStudy\\resources\\JPG\\pingpongtable.jpg,C:\\Users\\Psychology\\Documents\\ABExperiment\\MemoryStudy\\resources\\JPG\\,0,199,199,199,,,,,,,53.847902500012424,None,1,0.14831150000100024,53.847902500012424,None,53.847902500012424,None,test,001,2022-06-22_09h41.13.217,MemoryStudy,2022.1.4,59.96551983231222,
Mem,5,flamingo.jpg,P,P,JPG\,flamingo,C:\\Users\\Psychology\\Documents\\ABExperiment\\MemoryStudy\\resources\\JPG\\flamingo.jpg,C:\\Users\\Psychology\\Documents\\ABExperiment\\MemoryStudy\\resources\\JPG\\,0,200,200,200,,,,,,,54.02914420000161,None,1,0.16716940002515912,54.02914420000161,None,54.02914420000161,None,test,001,2022-06-22_09h41.13.217,MemoryStudy,2022.1.4,59.96551983231222,
Mem,5,pokerchips.jpg,P,P,JPG\,pokerchips,C:\\Users\\Psychology\\Documents\\ABExperiment\\MemoryStudy\\resources\\JPG\\pokerchips.jpg,C:\\Users\\Psychology\\Documents\\ABExperiment\\MemoryStudy\\resources\\JPG\\,0,201,201,201,,,,,,,54.22851030001766,None,1,0.19104569999035448,54.22851030001766,None,54.22851030001766,None,test,001,2022-06-22_09h41.13.217,MemoryStudy,2022.1.4,59.96551983231222,
Mem,5,popcorn.jpg,P,P,JPG\,popcorn,C:\\Users\\Psychology\\Documents\\ABExperiment\\MemoryStudy\\resources\\JPG\\popcorn.jpg,C:\\Users\\Psychology\\Documents\\ABExperiment\\MemoryStudy\\resources\\JPG\\,0,202,202,202,,,,,,,54.44541310000932,None,1,0.16615639999508858,54.44541310000932,None,54.44541310000932,None,test,001,2022-06-22_09h41.13.217,MemoryStudy,2022.1.4,59.96551983231222,
Mem,5,punchingbag.jpg,P,P,JPG\,punchingbag,C:\\Users\\Psychology\\Documents\\ABExperiment\\MemoryStudy\\resources\\JPG\\punchingbag.jpg,C:\\Users\\Psychology\\Documents\\ABExperiment\\MemoryStudy\\resources\\JPG\\,0,203,203,203,,,,,,,54.62902340001892,None,1,0.1746162999770604,54.62902340001892,None,54.62902340001892,None,test,001,2022-06-22_09h41.13.217,MemoryStudy,2022.1.4,59.96551983231222,
Mem,5,recyclingbin.jpg,P,P,JPG\,recyclingbin,C:\\Users\\Psychology\\Documents\\ABExperiment\\MemoryStudy\\resources\\JPG\\recyclingbin.jpg,C:\\Users\\Psychology\\Documents\\ABExperiment\\MemoryStudy\\resources\\JPG\\,0,204,204,204,,,,,,,54.82945479999762,None,1,0.1580754999886267,54.82945479999762,None,54.82945479999762,None,test,001,2022-06-22_09h41.13.217,MemoryStudy,2022.1.4,59.96551983231222,
Mem,5,rose.jpg,P,P,JPG\,rose,C:\\Users\\Psychology\\Documents\\ABExperiment\\MemoryStudy\\resources\\JPG\\rose.jpg,C:\\Users\\Psychology\\Documents\\ABExperiment\\MemoryStudy\\resources\\JPG\\,0,205,205,205,,,,,,,55.0128498999984,None,1,0.174916599993594,55.0128498999984,None,55.0128498999984,None,test,001,2022-06-22_09h41.13.217,MemoryStudy,2022.1.4,59.96551983231222,
Mem,5,safe.jpg,P,P,JPG\,safe,C:\\Users\\Psychology\\Documents\\ABExperiment\\MemoryStudy\\resources\\JPG\\safe.jpg,C:\\Users\\Psychology\\Documents\\ABExperiment\\MemoryStudy\\resources\\JPG\\,0,206,206,206,,,,,,,55.21310170000652,None,1,0.19010869998601265,55.21310170000652,None,55.21310170000652,None,test,001,2022-06-22_09h41.13.217,MemoryStudy,2022.1.4,59.96551983231222,
Mem,99,pencil01.jpg,Z,Z,JPG\,pencil01,C:\\Users\\Psychology\\Documents\\ABExperiment\\MemoryStudy\\resources\\JPG\\pencil01.jpg,C:\\Users\\Psychology\\Documents\\ABExperiment\\MemoryStudy\\resources\\JPG\\,0,207,207,207,,,,,,,55.494906600011745,None,1,0.1083206000039354,55.494906600011745,None,55.494906600011745,None,test,001,2022-06-22_09h41.13.217,MemoryStudy,2022.1.4,59.96551983231222,
Mem,99,foosballtable.jpg,Z,Z,JPG\,foosballtable,C:\\Users\\Psychology\\Documents\\ABExperiment\\MemoryStudy\\resources\\JPG\\foosballtable.jpg,C:\\Users\\Psychology\\Documents\\ABExperiment\\MemoryStudy\\resources\\JPG\\,0,208,208,208,,,,,,,55.632316200004425,None,1,0.15586030000122264,55.632316200004425,None,55.632316200004425,None,test,001,2022-06-22_09h41.13.217,MemoryStudy,2022.1.4,59.96551983231222,
Mem,99,banana01.jpg,Z,Z,JPG\,banana01,C:\\Users\\Psychology\\Documents\\ABExperiment\\MemoryStudy\\resources\\JPG\\banana01.jpg,C:\\Users\\Psychology\\Documents\\ABExperiment\\MemoryStudy\\resources\\JPG\\,0,209,209,209,,,,,,,55.89514300000155,None,1,0.08435059999465011,55.89514300000155,None,55.89514300000155,None,test,001,2022-06-22_09h41.13.217,MemoryStudy,2022.1.4,59.96551983231222,
Mem,99,lipstick02a.jpg,Z,Z,JPG\,lipstick02a,C:\\Users\\Psychology\\Documents\\ABExperiment\\MemoryStudy\\resources\\JPG\\lipstick02a.jpg,C:\\Users\\Psychology\\Documents\\ABExperiment\\MemoryStudy\\resources\\JPG\\,0,210,210,210,,,,,,,56.08327410000493,None,1,0.11162330000661314,56.08327410000493,None,56.08327410000493,None,test,001,2022-06-22_09h41.13.217,MemoryStudy,2022.1.4,59.96551983231222,
Mem,99,toaster01.jpg,Z,Z,JPG\,toaster01,C:\\Users\\Psychology\\Documents\\ABExperiment\\MemoryStudy\\resources\\JPG\\toaster01.jpg,C:\\Users\\Psychology\\Documents\\ABExperiment\\MemoryStudy\\resources\\JPG\\,0,211,211,211,,,,,,,56.31057260002126,None,1,0.08574000000953674,56.31057260002126,None,56.31057260002126,None,test,001,2022-06-22_09h41.13.217,MemoryStudy,2022.1.4,59.96551983231222,
Mem,99,grape01.jpg,Z,Z,JPG\,grape01,C:\\Users\\Psychology\\Documents\\ABExperiment\\MemoryStudy\\resources\\JPG\\grape01.jpg,C:\\Users\\Psychology\\Documents\\ABExperiment\\MemoryStudy\\resources\\JPG\\,0,212,212,212,,,,,,,56.50511440000264,None,1,0.09031239998876117,56.50511440000264,None,56.50511440000264,None,test,001,2022-06-22_09h41.13.217,MemoryStudy,2022.1.4,59.96551983231222,
Mem,99,key01.jpg,Z,Z,JPG\,key01,C:\\Users\\Psychology\\Documents\\ABExperiment\\MemoryStudy\\resources\\JPG\\key01.jpg,C:\\Users\\Psychology\\Documents\\ABExperiment\\MemoryStudy\\resources\\JPG\\,0,213,213,213,,,,,,,56.68045770001481,None,1,0.1160948000033386,56.68045770001481,None,56.68045770001481,None,test,001,2022-06-22_09h41.13.217,MemoryStudy,2022.1.4,59.96551983231222,
Mem,99,cellphone.jpg,Z,Z,JPG\,cellphone,C:\\Users\\Psychology\\Documents\\ABExperiment\\MemoryStudy\\resources\\JPG\\cellphone.jpg,C:\\Users\\Psychology\\Documents\\ABExperiment\\MemoryStudy\\resources\\JPG\\,0,214,214,214,,,,,,,56.91225980001036,None,1,0.08333239998319186,56.91225980001036,None,56.91225980001036,None,test,001,2022-06-22_09h41.13.217,MemoryStudy,2022.1.4,59.96551983231222,
Mem,99,screwdriver04b.jpg,Z,Z,JPG\,screwdriver04b,C:\\Users\\Psychology\\Documents\\ABExperiment\\MemoryStudy\\resources\\JPG\\screwdriver04b.jpg,C:\\Users\\Psychology\\Documents\\ABExperiment\\MemoryStudy\\resources\\JPG\\,0,215,215,215,,,,,,,57.10652400000254,None,1,0.09650430001784116,57.10652400000254,None,57.10652400000254,None,test,001,2022-06-22_09h41.13.217,MemoryStudy,2022.1.4,59.96551983231222,
Mem,99,pineapple01a.jpg,Z,Z,JPG\,pineapple01a,C:\\Users\\Psychology\\Documents\\ABExperiment\\MemoryStudy\\resources\\JPG\\pineapple01a.jpg,C:\\Users\\Psychology\\Documents\\ABExperiment\\MemoryStudy\\resources\\JPG\\,0,216,216,216,,,,,,,57.32136709999759,None,1,0.09802689999924041,57.32136709999759,None,57.32136709999759,None,test,001,2022-06-22_09h41.13.217,MemoryStudy,2022.1.4,59.96551983231222,
Mem,99,strawberry.jpg,Z,Z,JPG\,strawberry,C:\\Users\\Psychology\\Documents\\ABExperiment\\MemoryStudy\\resources\\JPG\\strawberry.jpg,C:\\Users\\Psychology\\Documents\\ABExperiment\\MemoryStudy\\resources\\JPG\\,0,217,217,217,,,,,,,57.54383229999803,None,1,0.060054800007492304,57.54383229999803,None,57.54383229999803,None,test,001,2022-06-22_09h41.13.217,MemoryStudy,2022.1.4,59.96551983231222,
Mem,99,teabag.jpg,Z,Z,JPG\,teabag,C:\\Users\\Psychology\\Documents\\ABExperiment\\MemoryStudy\\resources\\JPG\\teabag.jpg,C:\\Users\\Psychology\\Documents\\ABExperiment\\MemoryStudy\\resources\\JPG\\,0,218,218,218,,,,,,,57.717628700018395,None,1,0.0773034000012558,57.717628700018395,None,57.717628700018395,None,test,001,2022-06-22_09h41.13.217,MemoryStudy,2022.1.4,59.96551983231222,
Mem,99,dandelion.jpg,Z,Z,JPG\,dandelion,C:\\Users\\Psychology\\Documents\\ABExperiment\\MemoryStudy\\resources\\JPG\\dandelion.jpg,C:\\Users\\Psychology\\Documents\\ABExperiment\\MemoryStudy\\resources\\JPG\\,0,219,219,219,,,,,,,57.81742830001167,None,1,0.1774474999983795,57.81742830001167,None,57.81742830001167,None,test,001,2022-06-22_09h41.13.217,MemoryStudy,2022.1.4,59.96551983231222,
Mem,99,paintbrush01.jpg,Z,Z,JPG\,paintbrush01,C:\\Users\\Psychology\\Documents\\ABExperiment\\MemoryStudy\\resources\\JPG\\paintbrush01.jpg,C:\\Users\\Psychology\\Documents\\ABExperiment\\MemoryStudy\\resources\\JPG\\,0,220,220,220,,,,,,,58.097850799997104,None,1,0.09730960000888444,58.097850799997104,None,58.097850799997104,None,test,001,2022-06-22_09h41.13.217,MemoryStudy,2022.1.4,59.96551983231222,
Mem,99,celery.jpg,Z,Z,JPG\,celery,C:\\Users\\Psychology\\Documents\\ABExperiment\\MemoryStudy\\resources\\JPG\\celery.jpg,C:\\Users\\Psychology\\Documents\\ABExperiment\\MemoryStudy\\resources\\JPG\\,0,221,221,221,,,,,,,58.29765059999772,None,1,0.09016729998984374,58.29765059999772,None,58.29765059999772,None,test,001,2022-06-22_09h41.13.217,MemoryStudy,2022.1.4,59.96551983231222,
Mem,99,eraser.jpg,Z,Z,JPG\,eraser,C:\\Users\\Psychology\\Documents\\ABExperiment\\MemoryStudy\\resources\\JPG\\eraser.jpg,C:\\Users\\Psychology\\Documents\\ABExperiment\\MemoryStudy\\resources\\JPG\\,0,222,222,222,,,,,,,58.483964600018226,None,1,0.10320219999994151,58.483964600018226,None,58.483964600018226,None,test,001,2022-06-22_09h41.13.217,MemoryStudy,2022.1.4,59.96551983231222,
Mem,99,medal02b.jpg,Z,Z,JPG\,medal02b,C:\\Users\\Psychology\\Documents\\ABExperiment\\MemoryStudy\\resources\\JPG\\medal02b.jpg,C:\\Users\\Psychology\\Documents\\ABExperiment\\MemoryStudy\\resources\\JPG\\,0,223,223,223,,,,,,,58.715638800000306,None,1,0.0790088000067044,58.715638800000306,None,58.715638800000306,None,test,001,2022-06-22_09h41.13.217,MemoryStudy,2022.1.4,59.96551983231222,
Mem,99,hammer01.jpg,Z,Z,JPG\,hammer01,C:\\Users\\Psychology\\Documents\\ABExperiment\\MemoryStudy\\resources\\JPG\\hammer01.jpg,C:\\Users\\Psychology\\Documents\\ABExperiment\\MemoryStudy\\resources\\JPG\\,0,224,224,224,,,,,,,58.88168260001112,None,1,0.1297605999861844,58.88168260001112,None,58.88168260001112,None,test,001,2022-06-22_09h41.13.217,MemoryStudy,2022.1.4,59.96551983231222,
Mem,99,speaker04.jpg,Z,Z,JPG\,speaker04,C:\\Users\\Psychology\\Documents\\ABExperiment\\MemoryStudy\\resources\\JPG\\speaker04.jpg,C:\\Users\\Psychology\\Documents\\ABExperiment\\MemoryStudy\\resources\\JPG\\,0,225,225,225,,,,,,,59.10694880000665,None,1,0.12096770000061952,59.10694880000665,None,59.10694880000665,None,test,001,2022-06-22_09h41.13.217,MemoryStudy,2022.1.4,59.96551983231222,
Mem,99,mushroom01.jpg,Z,Z,JPG\,mushroom01,C:\\Users\\Psychology\\Documents\\ABExperiment\\MemoryStudy\\resources\\JPG\\mushroom01.jpg,C:\\Users\\Psychology\\Documents\\ABExperiment\\MemoryStudy\\resources\\JPG\\,0,226,226,226,,,,,,,59.34906330000376,None,1,0.05410999999730848,59.34906330000376,None,59.34906330000376,None,test,001,2022-06-22_09h41.13.217,MemoryStudy,2022.1.4,59.96551983231222,
Mem,99,pear01.jpg,Z,Z,JPG\,pear01,C:\\Users\\Psychology\\Documents\\ABExperiment\\MemoryStudy\\resources\\JPG\\pear01.jpg,C:\\Users\\Psychology\\Documents\\ABExperiment\\MemoryStudy\\resources\\JPG\\,0,227,227,227,,,,,,,59.50654349999968,None,1,0.1046906000119634,59.50654349999968,None,59.50654349999968,None,test,001,2022-06-22_09h41.13.217,MemoryStudy,2022.1.4,59.96551983231222,
Mem,99,comb02a.jpg,Z,Z,JPG\,comb02a,C:\\Users\\Psychology\\Documents\\ABExperiment\\MemoryStudy\\resources\\JPG\\comb02a.jpg,C:\\Users\\Psychology\\Documents\\ABExperiment\\MemoryStudy\\resources\\JPG\\,0,228,228,228,,,,,,,59.70183259999612,None,1,0.10131769999861717,59.70183259999612,None,59.70183259999612,None,test,001,2022-06-22_09h41.13.217,MemoryStudy,2022.1.4,59.96551983231222,
Mem,99,plate01b.jpg,Z,Z,JPG\,plate01b,C:\\Users\\Psychology\\Documents\\ABExperiment\\MemoryStudy\\resources\\JPG\\plate01b.jpg,C:\\Users\\Psychology\\Documents\\ABExperiment\\MemoryStudy\\resources\\JPG\\,0,229,229,229,,,,,,,59.91893090002122,None,1,0.0929519000055734,59.91893090002122,None,59.91893090002122,None,test,001,2022-06-22_09h41.13.217,MemoryStudy,2022.1.4,59.96551983231222,
Mem,99,clock01a.jpg,Z,Z,JPG\,clock01a,C:\\Users\\Psychology\\Documents\\ABExperiment\\MemoryStudy\\resources\\JPG\\clock01a.jpg,C:\\Users\\Psychology\\Documents\\ABExperiment\\MemoryStudy\\resources\\JPG\\,0,230,230,230,,,,,,,60.13744210000732,None,1,0.09759999997913837,60.13744210000732,None,60.13744210000732,None,test,001,2022-06-22_09h41.13.217,MemoryStudy,2022.1.4,59.96551983231222,
Mem,99,button01.jpg,Z,Z,JPG\,button01,C:\\Users\\Psychology\\Documents\\ABExperiment\\MemoryStudy\\resources\\JPG\\button01.jpg,C:\\Users\\Psychology\\Documents\\ABExperiment\\MemoryStudy\\resources\\JPG\\,0,231,231,231,,,,,,,60.364700900012394,None,1,0.07897959998808801,60.364700900012394,None,60.364700900012394,None,test,001,2022-06-22_09h41.13.217,MemoryStudy,2022.1.4,59.96551983231222,
Mem,99,globe.jpg,Z,Z,JPG\,globe,C:\\Users\\Psychology\\Documents\\ABExperiment\\MemoryStudy\\resources\\JPG\\globe.jpg,C:\\Users\\Psychology\\Documents\\ABExperiment\\MemoryStudy\\resources\\JPG\\,0,232,232,232,,,,,,,60.57149220001884,None,1,0.08054680001805536,60.57149220001884,None,60.57149220001884,None,test,001,2022-06-22_09h41.13.217,MemoryStudy,2022.1.4,59.96551983231222,
Mem,99,sewingmachine01a.jpg,Z,Z,JPG\,sewingmachine01a,C:\\Users\\Psychology\\Documents\\ABExperiment\\MemoryStudy\\resources\\JPG\\sewingmachine01a.jpg,C:\\Users\\Psychology\\Documents\\ABExperiment\\MemoryStudy\\resources\\JPG\\,0,233,233,233,,,,,,,60.77997590001905,None,1,0.07973040000069886,60.77997590001905,None,60.77997590001905,None,test,001,2022-06-22_09h41.13.217,MemoryStudy,2022.1.4,59.96551983231222,
Mem,99,scarf.jpg,Z,Z,JPG\,scarf,C:\\Users\\Psychology\\Documents\\ABExperiment\\MemoryStudy\\resources\\JPG\\scarf.jpg,C:\\Users\\Psychology\\Documents\\ABExperiment\\MemoryStudy\\resources\\JPG\\,0,234,234,234,,,,,,,60.9804804000014,None,1,0.09447099998942576,60.9804804000014,None,60.9804804000014,None,test,001,2022-06-22_09h41.13.217,MemoryStudy,2022.1.4,59.96551983231222,
Mem,99,carrot01.jpg,Z,Z,JPG\,carrot01,C:\\Users\\Psychology\\Documents\\ABExperiment\\MemoryStudy\\resources\\JPG\\carrot01.jpg,C:\\Users\\Psychology\\Documents\\ABExperiment\\MemoryStudy\\resources\\JPG\\,0,235,235,235,,,,,,,61.18322510001599,None,1,0.10827040000003763,61.18322510001599,None,61.18322510001599,None,test,001,2022-06-22_09h41.13.217,MemoryStudy,2022.1.4,59.96551983231222,
Mem,99,book01b.jpg,Z,Z,JPG\,book01b,C:\\Users\\Psychology\\Documents\\ABExperiment\\MemoryStudy\\resources\\JPG\\book01b.jpg,C:\\Users\\Psychology\\Documents\\ABExperiment\\MemoryStudy\\resources\\JPG\\,0,236,236,236,,,,,,,61.4044145999942,None,1,0.0867597000033129,61.4044145999942,None,61.4044145999942,None,test,001,2022-06-22_09h41.13.217,MemoryStudy,2022.1.4,59.96551983231222,
Mem,99,tennisball01b.jpg,Z,Z,JPG\,tennisball01b,C:\\Users\\Psychology\\Documents\\ABExperiment\\MemoryStudy\\resources\\JPG\\tennisball01b.jpg,C:\\Users\\Psychology\\Documents\\ABExperiment\\MemoryStudy\\resources\\JPG\\,0,237,237,237,,,,,,,61.59015050000744,None,1,0.1094215999764856,61.59015050000744,None,61.59015050000744,None,test,001,2022-06-22_09h41.13.217,MemoryStudy,2022.1.4,59.96551983231222,
Mem,99,handcuffs.jpg,Z,Z,JPG\,handcuffs,C:\\Users\\Psychology\\Documents\\ABExperiment\\MemoryStudy\\resources\\JPG\\handcuffs.jpg,C:\\Users\\Psychology\\Documents\\ABExperiment\\MemoryStudy\\resources\\JPG\\,0,238,238,238,,,,,,,61.72138669999549,None,1,0.1940370999800507,61.72138669999549,None,61.72138669999549,None,test,001,2022-06-22_09h41.13.217,MemoryStudy,2022.1.4,59.96551983231222,
Mem,99,feather03a.jpg,Z,Z,JPG\,feather03a,C:\\Users\\Psychology\\Documents\\ABExperiment\\MemoryStudy\\resources\\JPG\\feather03a.jpg,C:\\Users\\Psychology\\Documents\\ABExperiment\\MemoryStudy\\resources\\JPG\\,0,239,239,239,,,,,,,62.01184530000319,None,1,0.11925789999077097,62.01184530000319,None,62.01184530000319,None,test,001,2022-06-22_09h41.13.217,MemoryStudy,2022.1.4,59.96551983231222,
Mem,99,sock01a.jpg,Z,Z,JPG\,sock01a,C:\\Users\\Psychology\\Documents\\ABExperiment\\MemoryStudy\\resources\\JPG\\sock01a.jpg,C:\\Users\\Psychology\\Documents\\ABExperiment\\MemoryStudy\\resources\\JPG\\,0,240,240,240,,,,,,,62.241860800015274,None,1,0.09776110001257621,62.241860800015274,None,62.241860800015274,None,test,001,2022-06-22_09h41.13.217,MemoryStudy,2022.1.4,59.96551983231222,
Mem,99,printer02.jpg,Z,Z,JPG\,printer02,C:\\Users\\Psychology\\Documents\\ABExperiment\\MemoryStudy\\resources\\JPG\\printer02.jpg,C:\\Users\\Psychology\\Documents\\ABExperiment\\MemoryStudy\\resources\\JPG\\,0,241,241,241,,,,,,,62.464136199996574,None,1,0.0835392999870237,62.464136199996574,None,62.464136199996574,None,test,001,2022-06-22_09h41.13.217,MemoryStudy,2022.1.4,59.96551983231222,
Mem,99,garlic01a.jpg,Z,Z,JPG\,garlic01a,C:\\Users\\Psychology\\Documents\\ABExperiment\\MemoryStudy\\resources\\JPG\\garlic01a.jpg,C:\\Users\\Psychology\\Documents\\ABExperiment\\MemoryStudy\\resources\\JPG\\,0,242,242,242,,,,,,,62.65904130000854,None,1,0.09632369998143986,62.65904130000854,None,62.65904130000854,None,test,001,2022-06-22_09h41.13.217,MemoryStudy,2022.1.4,59.96551983231222,
Mem,99,watermelon01.jpg,Z,Z,JPG\,watermelon01,C:\\Users\\Psychology\\Documents\\ABExperiment\\MemoryStudy\\resources\\JPG\\watermelon01.jpg,C:\\Users\\Psychology\\Documents\\ABExperiment\\MemoryStudy\\resources\\JPG\\,0,243,243,243,,,,,,,62.88641480001388,None,1,0.07663069997215644,62.88641480001388,None,62.88641480001388,None,test,001,2022-06-22_09h41.13.217,MemoryStudy,2022.1.4,59.96551983231222,
Mem,99,stapler03a.jpg,Z,Z,JPG\,stapler03a,C:\\Users\\Psychology\\Documents\\ABExperiment\\MemoryStudy\\resources\\JPG\\stapler03a.jpg,C:\\Users\\Psychology\\Documents\\ABExperiment\\MemoryStudy\\resources\\JPG\\,0,244,244,244,,,,,,,63.1195101000194,None,1,0.060257600009208545,63.1195101000194,None,63.1195101000194,None,test,001,2022-06-22_09h41.13.217,MemoryStudy,2022.1.4,59.96551983231222,
Mem,99,microscope.jpg,Z,Z,JPG\,microscope,C:\\Users\\Psychology\\Documents\\ABExperiment\\MemoryStudy\\resources\\JPG\\microscope.jpg,C:\\Users\\Psychology\\Documents\\ABExperiment\\MemoryStudy\\resources\\JPG\\,0,245,245,245,,,,,,,63.26572739999392,None,1,0.11374470000737347,63.26572739999392,None,63.26572739999392,None,test,001,2022-06-22_09h41.13.217,MemoryStudy,2022.1.4,59.96551983231222,
Mem,99,blueberry01.jpg,Z,Z,JPG\,blueberry01,C:\\Users\\Psychology\\Documents\\ABExperiment\\MemoryStudy\\resources\\JPG\\blueberry01.jpg,C:\\Users\\Psychology\\Documents\\ABExperiment\\MemoryStudy\\resources\\JPG\\,0,246,246,246,,,,,,,63.48127040002146,None,1,0.1133368999871891,63.48127040002146,None,63.48127040002146,None,test,001,2022-06-22_09h41.13.217,MemoryStudy,2022.1.4,59.96551983231222,
Mem,99,computerkeyboard02.jpg,Z,Z,JPG\,computerkeyboard02,C:\\Users\\Psychology\\Documents\\ABExperiment\\MemoryStudy\\resources\\JPG\\computerkeyboard02.jpg,C:\\Users\\Psychology\\Documents\\ABExperiment\\MemoryStudy\\resources\\JPG\\,0,247,247,247,,,,,,,63.68355670000892,None,1,0.1272404000046663,63.68355670000892,None,63.68355670000892,None,test,001,2022-06-22_09h41.13.217,MemoryStudy,2022.1.4,59.96551983231222,
Mem,99,lamp04a.jpg,Z,Z,JPG\,lamp04a,C:\\Users\\Psychology\\Documents\\ABExperiment\\MemoryStudy\\resources\\JPG\\lamp04a.jpg,C:\\Users\\Psychology\\Documents\\ABExperiment\\MemoryStudy\\resources\\JPG\\,0,248,248,248,,,,,,,63.92270650001592,None,1,0.10460220000823028,63.92270650001592,None,63.92270650001592,None,test,001,2022-06-22_09h41.13.217,MemoryStudy,2022.1.4,59.96551983231222,
Mem,99,match.jpg,Z,Z,JPG\,match,C:\\Users\\Psychology\\Documents\\ABExperiment\\MemoryStudy\\resources\\JPG\\match.jpg,C:\\Users\\Psychology\\Documents\\ABExperiment\\MemoryStudy\\resources\\JPG\\,0,249,249,249,,,,,,,64.12996270001167,None,1,0.11274899999261834,64.12996270001167,None,64.12996270001167,None,test,001,2022-06-22_09h41.13.217,MemoryStudy,2022.1.4,59.96551983231222,
Mem,99,iron01b.jpg,Z,Z,JPG\,iron01b,C:\\Users\\Psychology\\Documents\\ABExperiment\\MemoryStudy\\resources\\JPG\\iron01b.jpg,C:\\Users\\Psychology\\Documents\\ABExperiment\\MemoryStudy\\resources\\JPG\\,0,250,250,250,,,,,,,64.36265560000902,None,1,0.09648759997799061,64.36265560000902,None,64.36265560000902,None,test,001,2022-06-22_09h41.13.217,MemoryStudy,2022.1.4,59.96551983231222,
Mem,99,ring01.jpg,Z,Z,JPG\,ring01,C:\\Users\\Psychology\\Documents\\ABExperiment\\MemoryStudy\\resources\\JPG\\ring01.jpg,C:\\Users\\Psychology\\Documents\\ABExperiment\\MemoryStudy\\resources\\JPG\\,0,251,251,251,,,,,,,64.54783640001551,None,1,0.1276015999901574,64.54783640001551,None,64.54783640001551,None,test,001,2022-06-22_09h41.13.217,MemoryStudy,2022.1.4,59.96551983231222,
Mem,99,pen04b.jpg,Z,Z,JPG\,pen04b,C:\\Users\\Psychology\\Documents\\ABExperiment\\MemoryStudy\\resources\\JPG\\pen04b.jpg,C:\\Users\\Psychology\\Documents\\ABExperiment\\MemoryStudy\\resources\\JPG\\,0,252,252,252,,,,,,,64.79742440002155,None,1,0.093886399990879,64.79742440002155,None,64.79742440002155,None,test,001,2022-06-22_09h41.13.217,MemoryStudy,2022.1.4,59.96551983231222,
Mem,99,binoculars01b.jpg,Z,Z,JPG\,binoculars01b,C:\\Users\\Psychology\\Documents\\ABExperiment\\MemoryStudy\\resources\\JPG\\binoculars01b.jpg,C:\\Users\\Psychology\\Documents\\ABExperiment\\MemoryStudy\\resources\\JPG\\,0,253,253,253,,,,,,,65.02070750002167,None,1,0.0790526999917347,65.02070750002167,None,65.02070750002167,None,test,001,2022-06-22_09h41.13.217,MemoryStudy,2022.1.4,59.96551983231222,
Mem,99,cauliflower01.jpg,Z,Z,JPG\,cauliflower01,C:\\Users\\Psychology\\Documents\\ABExperiment\\MemoryStudy\\resources\\JPG\\cauliflower01.jpg,C:\\Users\\Psychology\\Documents\\ABExperiment\\MemoryStudy\\resources\\JPG\\,0,254,254,254,,,,,,,65.18774069999927,None,1,0.12823450000723824,65.18774069999927,None,65.18774069999927,None,test,001,2022-06-22_09h41.13.217,MemoryStudy,2022.1.4,59.96551983231222,
