TrialType,Lag,Image,T1PA,T2PA,PicFolder,Picture,FullPathName,FilePath,trials.thisRepN,trials.thisTrialN,trials.thisN,trials.thisIndex,text.started,text.stopped,End_Instructions.keys,End_Instructions.rt,End_Instructions.started,End_Instructions.stopped,MemTest.started,MemTest.stopped,MemResponse.keys,MemResponse.rt,MemResponse.started,MemResponse.stopped,Display.started,Display.stopped,participant,session,date,expName,psychopyVersion,frameRate,
,,,,,,,,,,,,,15.892378299991833,None,space,1.855188999994425,15.892378299991833,None,,,,,,,,,test,001,2022-06-22_11h04.58.267,MemoryStudy,2022.1.4,59.95469822707223,
Mem,1,giraffe.jpg,P,P,JPG\,giraffe,C:\\Users\\Psychology\\Documents\\ABExperiment\\MemoryStudy\\resources\\JPG\\giraffe.jpg,C:\\Users\\Psychology\\Documents\\ABExperiment\\MemoryStudy\\resources\\JPG\\,0,0,0,0,,,,,,,17.956829400005518,None,1,0.830671000003349,17.956829400005518,None,17.956829400005518,None,test,001,2022-06-22_11h04.58.267,MemoryStudy,2022.1.4,59.95469822707223,
Mem,1,greathornowl.jpg,P,P,JPG\,greathornowl,C:\\Users\\Psychology\\Documents\\ABExperiment\\MemoryStudy\\resources\\JPG\\greathornowl.jpg,C:\\Users\\Psychology\\Documents\\ABExperiment\\MemoryStudy\\resources\\JPG\\,0,1,1,1,,,,,,,18.825671900005545,None,1,0.3059388999827206,18.825671900005545,None,18.825671900005545,None,test,001,2022-06-22_11h04.58.267,MemoryStudy,2022.1.4,59.95469822707223,
Mem,1,candle08b.jpg,P,P,JPG\,candle08b,C:\\Users\\Psychology\\Documents\\ABExperiment\\MemoryStudy\\resources\\JPG\\candle08b.jpg,C:\\Users\\Psychology\\Documents\\ABExperiment\\MemoryStudy\\resources\\JPG\\,0,2,2,2,,,,,,,19.270714699989185,None,1,0.16598349998821504,19.270714699989185,None,19.270714699989185,None,test,001,2022-06-22_11h04.58.267,MemoryStudy,2022.1.4,59.95469822707223,
Mem,1,horse.jpg,P,P,JPG\,horse,C:\\Users\\Psychology\\Documents\\ABExperiment\\MemoryStudy\\resources\\JPG\\horse.jpg,C:\\Users\\Psychology\\Documents\\ABExperiment\\MemoryStudy\\resources\\JPG\\,0,3,3,3,,,,,,,19.532768400007626,None,1,0.20643459999701008,19.532768400007626,None,19.532768400007626,None,test,001,2022-06-22_11h04.58.267,MemoryStudy,2022.1.4,59.95469822707223,
Mem,1,snowman.jpg,P,P,JPG\,snowman,C:\\Users\\Psychology\\Documents\\ABExperiment\\MemoryStudy\\resources\\JPG\\snowman.jpg,C:\\Users\\Psychology\\Documents\\ABExperiment\\MemoryStudy\\resources\\JPG\\,0,4,4,4,,,,,,,19.773894399986602,None,1,0.25355799999670126,19.773894399986602,None,19.773894399986602,None,test,001,2022-06-22_11h04.58.267,MemoryStudy,2022.1.4,59.95469822707223,
Mem,1,squirrel.jpg,P,P,JPG\,squirrel,C:\\Users\\Psychology\\Documents\\ABExperiment\\MemoryStudy\\resources\\JPG\\squirrel.jpg,C:\\Users\\Psychology\\Documents\\ABExperiment\\MemoryStudy\\resources\\JPG\\,0,5,5,5,,,,,,,20.053539199987426,None,1,0.2537220999947749,20.053539199987426,None,20.053539199987426,None,test,001,2022-06-22_11h04.58.267,MemoryStudy,2022.1.4,59.95469822707223,
Mem,1,firtree.jpg,P,P,JPG\,firtree,C:\\Users\\Psychology\\Documents\\ABExperiment\\MemoryStudy\\resources\\JPG\\firtree.jpg,C:\\Users\\Psychology\\Documents\\ABExperiment\\MemoryStudy\\resources\\JPG\\,0,6,6,6,,,,,,,20.443435299996054,None,1,0.1449432999943383,20.443435299996054,None,20.443435299996054,None,test,001,2022-06-22_11h04.58.267,MemoryStudy,2022.1.4,59.95469822707223,
Mem,1,bowlingball.jpg,P,P,JPG\,bowlingball,C:\\Users\\Psychology\\Documents\\ABExperiment\\MemoryStudy\\resources\\JPG\\bowlingball.jpg,C:\\Users\\Psychology\\Documents\\ABExperiment\\MemoryStudy\\resources\\JPG\\,0,7,7,7,,,,,,,20.623071799986064,None,1,0.2997386000060942,20.623071799986064,None,20.623071799986064,None,test,001,2022-06-22_11h04.58.267,MemoryStudy,2022.1.4,59.95469822707223,
Mem,1,bowlingpin.jpg,P,P,JPG\,bowlingpin,C:\\Users\\Psychology\\Documents\\ABExperiment\\MemoryStudy\\resources\\JPG\\bowlingpin.jpg,C:\\Users\\Psychology\\Documents\\ABExperiment\\MemoryStudy\\resources\\JPG\\,0,8,8,8,,,,,,,20.954746500006877,None,1,0.2653676999907475,20.954746500006877,None,20.954746500006877,None,test,001,2022-06-22_11h04.58.267,MemoryStudy,2022.1.4,59.95469822707223,
Mem,1,candycane01a.jpg,P,P,JPG\,candycane01a,C:\\Users\\Psychology\\Documents\\ABExperiment\\MemoryStudy\\resources\\JPG\\candycane01a.jpg,C:\\Users\\Psychology\\Documents\\ABExperiment\\MemoryStudy\\resources\\JPG\\,0,9,9,9,,,,,,,21.240284600004088,None,1,0.26671269998769276,21.240284600004088,None,21.240284600004088,None,test,001,2022-06-22_11h04.58.267,MemoryStudy,2022.1.4,59.95469822707223,
Mem,1,dolphin01.jpg,P,P,JPG\,dolphin01,C:\\Users\\Psychology\\Documents\\ABExperiment\\MemoryStudy\\resources\\JPG\\dolphin01.jpg,C:\\Users\\Psychology\\Documents\\ABExperiment\\MemoryStudy\\resources\\JPG\\,0,10,10,10,,,,,,,21.54056500000297,None,1,0.2635971999843605,21.54056500000297,None,21.54056500000297,None,test,001,2022-06-22_11h04.58.267,MemoryStudy,2022.1.4,59.95469822707223,
Mem,1,dromedary.jpg,P,P,JPG\,dromedary,C:\\Users\\Psychology\\Documents\\ABExperiment\\MemoryStudy\\resources\\JPG\\dromedary.jpg,C:\\Users\\Psychology\\Documents\\ABExperiment\\MemoryStudy\\resources\\JPG\\,0,11,11,11,,,,,,,21.82429140000022,None,1,0.243119899998419,21.82429140000022,None,21.82429140000022,None,test,001,2022-06-22_11h04.58.267,MemoryStudy,2022.1.4,59.95469822707223,
Mem,1,football.jpg,P,P,JPG\,football,C:\\Users\\Psychology\\Documents\\ABExperiment\\MemoryStudy\\resources\\JPG\\football.jpg,C:\\Users\\Psychology\\Documents\\ABExperiment\\MemoryStudy\\resources\\JPG\\,0,12,12,12,,,,,,,22.091123699996388,None,1,0.266121499997098,22.091123699996388,None,22.091123699996388,None,test,001,2022-06-22_11h04.58.267,MemoryStudy,2022.1.4,59.95469822707223,
Mem,1,golfball.jpg,P,P,JPG\,golfball,C:\\Users\\Psychology\\Documents\\ABExperiment\\MemoryStudy\\resources\\JPG\\golfball.jpg,C:\\Users\\Psychology\\Documents\\ABExperiment\\MemoryStudy\\resources\\JPG\\,0,13,13,13,,,,,,,22.39140860000043,None,1,0.22799049998866394,22.39140860000043,None,22.39140860000043,None,test,001,2022-06-22_11h04.58.267,MemoryStudy,2022.1.4,59.95469822707223,
Mem,1,guitarcase.jpg,P,P,JPG\,guitarcase,C:\\Users\\Psychology\\Documents\\ABExperiment\\MemoryStudy\\resources\\JPG\\guitarcase.jpg,C:\\Users\\Psychology\\Documents\\ABExperiment\\MemoryStudy\\resources\\JPG\\,0,14,14,14,,,,,,,22.64165479998337,None,1,0.2415962000086438,22.64165479998337,None,22.64165479998337,None,test,001,2022-06-22_11h04.58.267,MemoryStudy,2022.1.4,59.95469822707223,
Mem,1,jellybean.jpg,P,P,JPG\,jellybean,C:\\Users\\Psychology\\Documents\\ABExperiment\\MemoryStudy\\resources\\JPG\\jellybean.jpg,C:\\Users\\Psychology\\Documents\\ABExperiment\\MemoryStudy\\resources\\JPG\\,0,15,15,15,,,,,,,22.908575899986317,None,1,0.23869749999721535,22.908575899986317,None,22.908575899986317,None,test,001,2022-06-22_11h04.58.267,MemoryStudy,2022.1.4,59.95469822707223,
Mem,1,kangaroo.jpg,P,P,JPG\,kangaroo,C:\\Users\\Psychology\\Documents\\ABExperiment\\MemoryStudy\\resources\\JPG\\kangaroo.jpg,C:\\Users\\Psychology\\Documents\\ABExperiment\\MemoryStudy\\resources\\JPG\\,0,16,16,16,,,,,,,23.175513499998488,None,1,0.23574529998586513,23.175513499998488,None,23.175513499998488,None,test,001,2022-06-22_11h04.58.267,MemoryStudy,2022.1.4,59.95469822707223,
Mem,1,kite.jpg,P,P,JPG\,kite,C:\\Users\\Psychology\\Documents\\ABExperiment\\MemoryStudy\\resources\\JPG\\kite.jpg,C:\\Users\\Psychology\\Documents\\ABExperiment\\MemoryStudy\\resources\\JPG\\,0,17,17,17,,,,,,,23.44245000000228,None,1,0.24080179998418316,23.44245000000228,None,23.44245000000228,None,test,001,2022-06-22_11h04.58.267,MemoryStudy,2022.1.4,59.95469822707223,
Mem,1,lightswitch01.jpg,P,P,JPG\,lightswitch01,C:\\Users\\Psychology\\Documents\\ABExperiment\\MemoryStudy\\resources\\JPG\\lightswitch01.jpg,C:\\Users\\Psychology\\Documents\\ABExperiment\\MemoryStudy\\resources\\JPG\\,0,18,18,18,,,,,,,23.709376399987377,None,1,0.24671770000713877,23.709376399987377,None,23.709376399987377,None,test,001,2022-06-22_11h04.58.267,MemoryStudy,2022.1.4,59.95469822707223,
Mem,1,locker.jpg,P,P,JPG\,locker,C:\\Users\\Psychology\\Documents\\ABExperiment\\MemoryStudy\\resources\\JPG\\locker.jpg,C:\\Users\\Psychology\\Documents\\ABExperiment\\MemoryStudy\\resources\\JPG\\,0,19,19,19,,,,,,,23.976320499990834,None,1,0.2507616000075359,23.976320499990834,None,23.976320499990834,None,test,001,2022-06-22_11h04.58.267,MemoryStudy,2022.1.4,59.95469822707223,
Mem,1,mailbox01.jpg,P,P,JPG\,mailbox01,C:\\Users\\Psychology\\Documents\\ABExperiment\\MemoryStudy\\resources\\JPG\\mailbox01.jpg,C:\\Users\\Psychology\\Documents\\ABExperiment\\MemoryStudy\\resources\\JPG\\,0,20,20,20,,,,,,,24.344986100011738,None,1,0.178837499988731,24.344986100011738,None,24.344986100011738,None,test,001,2022-06-22_11h04.58.267,MemoryStudy,2022.1.4,59.95469822707223,
Mem,1,mailbox02.jpg,P,P,JPG\,mailbox02,C:\\Users\\Psychology\\Documents\\ABExperiment\\MemoryStudy\\resources\\JPG\\mailbox02.jpg,C:\\Users\\Psychology\\Documents\\ABExperiment\\MemoryStudy\\resources\\JPG\\,0,21,21,21,,,,,,,24.54720349999843,None,1,0.24772719998145476,24.54720349999843,None,24.54720349999843,None,test,001,2022-06-22_11h04.58.267,MemoryStudy,2022.1.4,59.95469822707223,
Mem,1,mattress.jpg,P,P,JPG\,mattress,C:\\Users\\Psychology\\Documents\\ABExperiment\\MemoryStudy\\resources\\JPG\\mattress.jpg,C:\\Users\\Psychology\\Documents\\ABExperiment\\MemoryStudy\\resources\\JPG\\,0,22,22,22,,,,,,,24.82797019998543,None,1,0.22344329999759793,24.82797019998543,None,24.82797019998543,None,test,001,2022-06-22_11h04.58.267,MemoryStudy,2022.1.4,59.95469822707223,
Mem,1,pumpkin.jpg,P,P,JPG\,pumpkin,C:\\Users\\Psychology\\Documents\\ABExperiment\\MemoryStudy\\resources\\JPG\\pumpkin.jpg,C:\\Users\\Psychology\\Documents\\ABExperiment\\MemoryStudy\\resources\\JPG\\,0,23,23,23,,,,,,,25.07846670001163,None,1,0.2370226999919396,25.07846670001163,None,25.07846670001163,None,test,001,2022-06-22_11h04.58.267,MemoryStudy,2022.1.4,59.95469822707223,
Mem,1,schoolbus.jpg,P,P,JPG\,schoolbus,C:\\Users\\Psychology\\Documents\\ABExperiment\\MemoryStudy\\resources\\JPG\\schoolbus.jpg,C:\\Users\\Psychology\\Documents\\ABExperiment\\MemoryStudy\\resources\\JPG\\,0,24,24,24,,,,,,,25.356610599992564,None,1,0.20699059998150915,25.356610599992564,None,25.356610599992564,None,test,001,2022-06-22_11h04.58.267,MemoryStudy,2022.1.4,59.95469822707223,
Mem,1,skateboard.jpg,P,P,JPG\,skateboard,C:\\Users\\Psychology\\Documents\\ABExperiment\\MemoryStudy\\resources\\JPG\\skateboard.jpg,C:\\Users\\Psychology\\Documents\\ABExperiment\\MemoryStudy\\resources\\JPG\\,0,25,25,25,,,,,,,25.597312800004147,None,1,0.22211329999845475,25.597312800004147,None,25.597312800004147,None,test,001,2022-06-22_11h04.58.267,MemoryStudy,2022.1.4,59.95469822707223,
Mem,1,soccerball.jpg,P,P,JPG\,soccerball,C:\\Users\\Psychology\\Documents\\ABExperiment\\MemoryStudy\\resources\\JPG\\soccerball.jpg,C:\\Users\\Psychology\\Documents\\ABExperiment\\MemoryStudy\\resources\\JPG\\,0,26,26,26,,,,,,,25.84603009998682,None,1,0.2373680000018794,25.84603009998682,None,25.84603009998682,None,test,001,2022-06-22_11h04.58.267,MemoryStudy,2022.1.4,59.95469822707223,
Mem,1,wheelchair.jpg,P,P,JPG\,wheelchair,C:\\Users\\Psychology\\Documents\\ABExperiment\\MemoryStudy\\resources\\JPG\\wheelchair.jpg,C:\\Users\\Psychology\\Documents\\ABExperiment\\MemoryStudy\\resources\\JPG\\,0,27,27,27,,,,,,,26.111195900011808,None,1,0.22837309999158606,26.111195900011808,None,26.111195900011808,None,test,001,2022-06-22_11h04.58.267,MemoryStudy,2022.1.4,59.95469822707223,
Mem,1,zebra.jpg,P,P,JPG\,zebra,C:\\Users\\Psychology\\Documents\\ABExperiment\\MemoryStudy\\resources\\JPG\\zebra.jpg,C:\\Users\\Psychology\\Documents\\ABExperiment\\MemoryStudy\\resources\\JPG\\,0,28,28,28,,,,,,,26.361481200001435,None,1,0.2340353000035975,26.361481200001435,None,26.361481200001435,None,test,001,2022-06-22_11h04.58.267,MemoryStudy,2022.1.4,59.95469822707223,
Mem,1,pooltable.jpg,P,P,JPG\,pooltable,C:\\Users\\Psychology\\Documents\\ABExperiment\\MemoryStudy\\resources\\JPG\\pooltable.jpg,C:\\Users\\Psychology\\Documents\\ABExperiment\\MemoryStudy\\resources\\JPG\\,0,29,29,29,,,,,,,26.628361200011568,None,1,0.22415739999269135,26.628361200011568,None,26.628361200011568,None,test,001,2022-06-22_11h04.58.267,MemoryStudy,2022.1.4,59.95469822707223,
Mem,1,swing.jpg,P,P,JPG\,swing,C:\\Users\\Psychology\\Documents\\ABExperiment\\MemoryStudy\\resources\\JPG\\swing.jpg,C:\\Users\\Psychology\\Documents\\ABExperiment\\MemoryStudy\\resources\\JPG\\,0,30,30,30,,,,,,,26.878263799997512,None,1,0.21322880001389422,26.878263799997512,None,26.878263799997512,None,test,001,2022-06-22_11h04.58.267,MemoryStudy,2022.1.4,59.95469822707223,
Mem,1,africanelephant.jpg,P,P,JPG\,africanelephant,C:\\Users\\Psychology\\Documents\\ABExperiment\\MemoryStudy\\resources\\JPG\\africanelephant.jpg,C:\\Users\\Psychology\\Documents\\ABExperiment\\MemoryStudy\\resources\\JPG\\,0,31,31,31,,,,,,,27.112128200009465,None,1,0.22660510000423528,27.112128200009465,None,27.112128200009465,None,test,001,2022-06-22_11h04.58.267,MemoryStudy,2022.1.4,59.95469822707223,
Mem,1,apron.jpg,P,P,JPG\,apron,C:\\Users\\Psychology\\Documents\\ABExperiment\\MemoryStudy\\resources\\JPG\\apron.jpg,C:\\Users\\Psychology\\Documents\\ABExperiment\\MemoryStudy\\resources\\JPG\\,0,32,32,32,,,,,,,27.362603299989132,None,1,0.24111669999547303,27.362603299989132,None,27.362603299989132,None,test,001,2022-06-22_11h04.58.267,MemoryStudy,2022.1.4,59.95469822707223,
Mem,1,barnowl.jpg,P,P,JPG\,barnowl,C:\\Users\\Psychology\\Documents\\ABExperiment\\MemoryStudy\\resources\\JPG\\barnowl.jpg,C:\\Users\\Psychology\\Documents\\ABExperiment\\MemoryStudy\\resources\\JPG\\,0,33,33,33,,,,,,,27.701784500008216,None,1,0.15728529999614693,27.701784500008216,None,27.701784500008216,None,test,001,2022-06-22_11h04.58.267,MemoryStudy,2022.1.4,59.95469822707223,
Mem,1,basketball01.jpg,P,P,JPG\,basketball01,C:\\Users\\Psychology\\Documents\\ABExperiment\\MemoryStudy\\resources\\JPG\\basketball01.jpg,C:\\Users\\Psychology\\Documents\\ABExperiment\\MemoryStudy\\resources\\JPG\\,0,34,34,34,,,,,,,27.878061800001888,None,1,0.24505699999281205,27.878061800001888,None,27.878061800001888,None,test,001,2022-06-22_11h04.58.267,MemoryStudy,2022.1.4,59.95469822707223,
Mem,1,bat.jpg,P,P,JPG\,bat,C:\\Users\\Psychology\\Documents\\ABExperiment\\MemoryStudy\\resources\\JPG\\bat.jpg,C:\\Users\\Psychology\\Documents\\ABExperiment\\MemoryStudy\\resources\\JPG\\,0,35,35,35,,,,,,,28.147129099990707,None,1,0.22390919999452308,28.147129099990707,None,28.147129099990707,None,test,001,2022-06-22_11h04.58.267,MemoryStudy,2022.1.4,59.95469822707223,
Mem,1,cloud.jpg,P,P,JPG\,cloud,C:\\Users\\Psychology\\Documents\\ABExperiment\\MemoryStudy\\resources\\JPG\\cloud.jpg,C:\\Users\\Psychology\\Documents\\ABExperiment\\MemoryStudy\\resources\\JPG\\,0,36,36,36,,,,,,,28.397337600006722,None,1,0.2295078999886755,28.397337600006722,None,28.397337600006722,None,test,001,2022-06-22_11h04.58.267,MemoryStudy,2022.1.4,59.95469822707223,
Mem,1,crab01.jpg,P,P,JPG\,crab01,C:\\Users\\Psychology\\Documents\\ABExperiment\\MemoryStudy\\resources\\JPG\\crab01.jpg,C:\\Users\\Psychology\\Documents\\ABExperiment\\MemoryStudy\\resources\\JPG\\,0,37,37,37,,,,,,,28.647592199995415,None,1,0.25318199998582713,28.647592199995415,None,28.647592199995415,None,test,001,2022-06-22_11h04.58.267,MemoryStudy,2022.1.4,59.95469822707223,
Mem,1,cupcake.jpg,P,P,JPG\,cupcake,C:\\Users\\Psychology\\Documents\\ABExperiment\\MemoryStudy\\resources\\JPG\\cupcake.jpg,C:\\Users\\Psychology\\Documents\\ABExperiment\\MemoryStudy\\resources\\JPG\\,0,38,38,38,,,,,,,28.93117809999967,None,1,0.24040350000723265,28.93117809999967,None,28.93117809999967,None,test,001,2022-06-22_11h04.58.267,MemoryStudy,2022.1.4,59.95469822707223,
Mem,1,donut.jpg,P,P,JPG\,donut,C:\\Users\\Psychology\\Documents\\ABExperiment\\MemoryStudy\\resources\\JPG\\donut.jpg,C:\\Users\\Psychology\\Documents\\ABExperiment\\MemoryStudy\\resources\\JPG\\,0,39,39,39,,,,,,,29.198122700006934,None,1,0.25324419999378733,29.198122700006934,None,29.198122700006934,None,test,001,2022-06-22_11h04.58.267,MemoryStudy,2022.1.4,59.95469822707223,
Mem,1,eiffeltower.jpg,P,P,JPG\,eiffeltower,C:\\Users\\Psychology\\Documents\\ABExperiment\\MemoryStudy\\resources\\JPG\\eiffeltower.jpg,C:\\Users\\Psychology\\Documents\\ABExperiment\\MemoryStudy\\resources\\JPG\\,0,40,40,40,,,,,,,29.481720100011444,None,1,0.27376359998015687,29.481720100011444,None,29.481720100011444,None,test,001,2022-06-22_11h04.58.267,MemoryStudy,2022.1.4,59.95469822707223,
Mem,1,exitsign.jpg,P,P,JPG\,exitsign,C:\\Users\\Psychology\\Documents\\ABExperiment\\MemoryStudy\\resources\\JPG\\exitsign.jpg,C:\\Users\\Psychology\\Documents\\ABExperiment\\MemoryStudy\\resources\\JPG\\,0,41,41,41,,,,,,,29.782015900011174,None,1,0.2693444000033196,29.782015900011174,None,29.782015900011174,None,test,001,2022-06-22_11h04.58.267,MemoryStudy,2022.1.4,59.95469822707223,
Mem,1,fortunecookie.jpg,P,P,JPG\,fortunecookie,C:\\Users\\Psychology\\Documents\\ABExperiment\\MemoryStudy\\resources\\JPG\\fortunecookie.jpg,C:\\Users\\Psychology\\Documents\\ABExperiment\\MemoryStudy\\resources\\JPG\\,0,42,42,42,,,,,,,30.08232700001099,None,1,0.2734498000063468,30.08232700001099,None,30.08232700001099,None,test,001,2022-06-22_11h04.58.267,MemoryStudy,2022.1.4,59.95469822707223,
Mem,1,harmonica.jpg,P,P,JPG\,harmonica,C:\\Users\\Psychology\\Documents\\ABExperiment\\MemoryStudy\\resources\\JPG\\harmonica.jpg,C:\\Users\\Psychology\\Documents\\ABExperiment\\MemoryStudy\\resources\\JPG\\,0,43,43,43,,,,,,,30.38264799999888,None,1,0.26096630000392906,30.38264799999888,None,30.38264799999888,None,test,001,2022-06-22_11h04.58.267,MemoryStudy,2022.1.4,59.95469822707223,
Mem,1,doghouse.jpg,P,P,JPG\,doghouse,C:\\Users\\Psychology\\Documents\\ABExperiment\\MemoryStudy\\resources\\JPG\\doghouse.jpg,C:\\Users\\Psychology\\Documents\\ABExperiment\\MemoryStudy\\resources\\JPG\\,0,44,44,44,,,,,,,30.66623719999916,None,1,0.2903768999967724,30.66623719999916,None,30.66623719999916,None,test,001,2022-06-22_11h04.58.267,MemoryStudy,2022.1.4,59.95469822707223,
Mem,1,ladder.jpg,P,P,JPG\,ladder,C:\\Users\\Psychology\\Documents\\ABExperiment\\MemoryStudy\\resources\\JPG\\ladder.jpg,C:\\Users\\Psychology\\Documents\\ABExperiment\\MemoryStudy\\resources\\JPG\\,0,45,45,45,,,,,,,30.983227099990472,None,1,0.27618310000980273,30.983227099990472,None,30.983227099990472,None,test,001,2022-06-22_11h04.58.267,MemoryStudy,2022.1.4,59.95469822707223,
Mem,1,lawnmower.jpg,P,P,JPG\,lawnmower,C:\\Users\\Psychology\\Documents\\ABExperiment\\MemoryStudy\\resources\\JPG\\lawnmower.jpg,C:\\Users\\Psychology\\Documents\\ABExperiment\\MemoryStudy\\resources\\JPG\\,0,46,46,46,,,,,,,31.283533499983605,None,1,0.27972399999271147,31.283533499983605,None,31.283533499983605,None,test,001,2022-06-22_11h04.58.267,MemoryStudy,2022.1.4,59.95469822707223,
Mem,1,parkingsign.jpg,P,P,JPG\,parkingsign,C:\\Users\\Psychology\\Documents\\ABExperiment\\MemoryStudy\\resources\\JPG\\parkingsign.jpg,C:\\Users\\Psychology\\Documents\\ABExperiment\\MemoryStudy\\resources\\JPG\\,0,47,47,47,,,,,,,31.591353800002253,None,1,0.26789829999324866,31.591353800002253,None,31.591353800002253,None,test,001,2022-06-22_11h04.58.267,MemoryStudy,2022.1.4,59.95469822707223,
Mem,1,skunk.jpg,P,P,JPG\,skunk,C:\\Users\\Psychology\\Documents\\ABExperiment\\MemoryStudy\\resources\\JPG\\skunk.jpg,C:\\Users\\Psychology\\Documents\\ABExperiment\\MemoryStudy\\resources\\JPG\\,0,48,48,48,,,,,,,31.88414680000278,None,1,0.28695099998731166,31.88414680000278,None,31.88414680000278,None,test,001,2022-06-22_11h04.58.267,MemoryStudy,2022.1.4,59.95469822707223,
Mem,1,snowboard.jpg,P,P,JPG\,snowboard,C:\\Users\\Psychology\\Documents\\ABExperiment\\MemoryStudy\\resources\\JPG\\snowboard.jpg,C:\\Users\\Psychology\\Documents\\ABExperiment\\MemoryStudy\\resources\\JPG\\,0,49,49,49,,,,,,,32.20110139998724,None,1,0.29094909998821095,32.20110139998724,None,32.20110139998724,None,test,001,2022-06-22_11h04.58.267,MemoryStudy,2022.1.4,59.95469822707223,
Mem,1,tiger02.jpg,P,P,JPG\,tiger02,C:\\Users\\Psychology\\Documents\\ABExperiment\\MemoryStudy\\resources\\JPG\\tiger02.jpg,C:\\Users\\Psychology\\Documents\\ABExperiment\\MemoryStudy\\resources\\JPG\\,0,50,50,50,,,,,,,32.51809180001146,None,1,0.29277359999832697,32.51809180001146,None,32.51809180001146,None,test,001,2022-06-22_11h04.58.267,MemoryStudy,2022.1.4,59.95469822707223,
Mem,1,tree.jpg,P,P,JPG\,tree,C:\\Users\\Psychology\\Documents\\ABExperiment\\MemoryStudy\\resources\\JPG\\tree.jpg,C:\\Users\\Psychology\\Documents\\ABExperiment\\MemoryStudy\\resources\\JPG\\,0,51,51,51,,,,,,,32.83738829998765,None,1,0.27051899998332374,32.83738829998765,None,32.83738829998765,None,test,001,2022-06-22_11h04.58.267,MemoryStudy,2022.1.4,59.95469822707223,
Mem,1,waterfall.jpg,P,P,JPG\,waterfall,C:\\Users\\Psychology\\Documents\\ABExperiment\\MemoryStudy\\resources\\JPG\\waterfall.jpg,C:\\Users\\Psychology\\Documents\\ABExperiment\\MemoryStudy\\resources\\JPG\\,0,52,52,52,,,,,,,33.13535560001037,None,1,0.28346499998588115,33.13535560001037,None,33.13535560001037,None,test,001,2022-06-22_11h04.58.267,MemoryStudy,2022.1.4,59.95469822707223,
Mem,1,bow.jpg,P,P,JPG\,bow,C:\\Users\\Psychology\\Documents\\ABExperiment\\MemoryStudy\\resources\\JPG\\bow.jpg,C:\\Users\\Psychology\\Documents\\ABExperiment\\MemoryStudy\\resources\\JPG\\,0,53,53,53,,,,,,,33.4523588999873,None,1,0.27842339998460375,33.4523588999873,None,33.4523588999873,None,test,001,2022-06-22_11h04.58.267,MemoryStudy,2022.1.4,59.95469822707223,
Mem,1,arugula.jpg,P,P,JPG\,arugula,C:\\Users\\Psychology\\Documents\\ABExperiment\\MemoryStudy\\resources\\JPG\\arugula.jpg,C:\\Users\\Psychology\\Documents\\ABExperiment\\MemoryStudy\\resources\\JPG\\,0,54,54,54,,,,,,,33.84257199999411,None,1,0.2093934000004083,33.84257199999411,None,33.84257199999411,None,test,001,2022-06-22_11h04.58.267,MemoryStudy,2022.1.4,59.95469822707223,
Mem,1,beaver.jpg,P,P,JPG\,beaver,C:\\Users\\Psychology\\Documents\\ABExperiment\\MemoryStudy\\resources\\JPG\\beaver.jpg,C:\\Users\\Psychology\\Documents\\ABExperiment\\MemoryStudy\\resources\\JPG\\,0,55,55,55,,,,,,,34.08888999998453,None,1,0.2498564000125043,34.08888999998453,None,34.08888999998453,None,test,001,2022-06-22_11h04.58.267,MemoryStudy,2022.1.4,59.95469822707223,
Mem,1,snowglobe.jpg,P,P,JPG\,snowglobe,C:\\Users\\Psychology\\Documents\\ABExperiment\\MemoryStudy\\resources\\JPG\\snowglobe.jpg,C:\\Users\\Psychology\\Documents\\ABExperiment\\MemoryStudy\\resources\\JPG\\,0,56,56,56,,,,,,,34.45365340000717,None,1,0.18975210000644438,34.45365340000717,None,34.45365340000717,None,test,001,2022-06-22_11h04.58.267,MemoryStudy,2022.1.4,59.95469822707223,
Mem,1,bullet.jpg,P,P,JPG\,bullet,C:\\Users\\Psychology\\Documents\\ABExperiment\\MemoryStudy\\resources\\JPG\\bullet.jpg,C:\\Users\\Psychology\\Documents\\ABExperiment\\MemoryStudy\\resources\\JPG\\,0,57,57,57,,,,,,,34.67352509999182,None,1,0.2746532000019215,34.67352509999182,None,34.67352509999182,None,test,001,2022-06-22_11h04.58.267,MemoryStudy,2022.1.4,59.95469822707223,
Mem,1,cactus.jpg,P,P,JPG\,cactus,C:\\Users\\Psychology\\Documents\\ABExperiment\\MemoryStudy\\resources\\JPG\\cactus.jpg,C:\\Users\\Psychology\\Documents\\ABExperiment\\MemoryStudy\\resources\\JPG\\,0,58,58,58,,,,,,,34.97109179999097,None,1,0.2880175999889616,34.97109179999097,None,34.97109179999097,None,test,001,2022-06-22_11h04.58.267,MemoryStudy,2022.1.4,59.95469822707223,
Mem,1,cow.jpg,P,P,JPG\,cow,C:\\Users\\Psychology\\Documents\\ABExperiment\\MemoryStudy\\resources\\JPG\\cow.jpg,C:\\Users\\Psychology\\Documents\\ABExperiment\\MemoryStudy\\resources\\JPG\\,0,59,59,59,,,,,,,35.296295600011945,None,1,0.27452390000689775,35.296295600011945,None,35.296295600011945,None,test,001,2022-06-22_11h04.58.267,MemoryStudy,2022.1.4,59.95469822707223,
Mem,1,discoball.jpg,P,P,JPG\,discoball,C:\\Users\\Psychology\\Documents\\ABExperiment\\MemoryStudy\\resources\\JPG\\discoball.jpg,C:\\Users\\Psychology\\Documents\\ABExperiment\\MemoryStudy\\resources\\JPG\\,0,60,60,60,,,,,,,35.60453380001127,None,1,0.2711888000194449,35.60453380001127,None,35.60453380001127,None,test,001,2022-06-22_11h04.58.267,MemoryStudy,2022.1.4,59.95469822707223,
Mem,1,drumstick.jpg,P,P,JPG\,drumstick,C:\\Users\\Psychology\\Documents\\ABExperiment\\MemoryStudy\\resources\\JPG\\drumstick.jpg,C:\\Users\\Psychology\\Documents\\ABExperiment\\MemoryStudy\\resources\\JPG\\,0,61,61,61,,,,,,,35.905695299996296,None,1,0.2810497999889776,35.905695299996296,None,35.905695299996296,None,test,001,2022-06-22_11h04.58.267,MemoryStudy,2022.1.4,59.95469822707223,
Mem,1,fingerprint.jpg,P,P,JPG\,fingerprint,C:\\Users\\Psychology\\Documents\\ABExperiment\\MemoryStudy\\resources\\JPG\\fingerprint.jpg,C:\\Users\\Psychology\\Documents\\ABExperiment\\MemoryStudy\\resources\\JPG\\,0,62,62,62,,,,,,,36.20626609999454,None,1,0.28486339998198673,36.20626609999454,None,36.20626609999454,None,test,001,2022-06-22_11h04.58.267,MemoryStudy,2022.1.4,59.95469822707223,
Mem,1,hockeystick.jpg,P,P,JPG\,hockeystick,C:\\Users\\Psychology\\Documents\\ABExperiment\\MemoryStudy\\resources\\JPG\\hockeystick.jpg,C:\\Users\\Psychology\\Documents\\ABExperiment\\MemoryStudy\\resources\\JPG\\,0,63,63,63,,,,,,,36.5221435999847,None,1,0.265732100000605,36.5221435999847,None,36.5221435999847,None,test,001,2022-06-22_11h04.58.267,MemoryStudy,2022.1.4,59.95469822707223,
Mem,1,hulahoop.jpg,P,P,JPG\,hulahoop,C:\\Users\\Psychology\\Documents\\ABExperiment\\MemoryStudy\\resources\\JPG\\hulahoop.jpg,C:\\Users\\Psychology\\Documents\\ABExperiment\\MemoryStudy\\resources\\JPG\\,0,64,64,64,,,,,,,36.82246150000719,None,1,0.2764072999707423,36.82246150000719,None,36.82246150000719,None,test,001,2022-06-22_11h04.58.267,MemoryStudy,2022.1.4,59.95469822707223,
Mem,1,ladybug03.jpg,P,P,JPG\,ladybug03,C:\\Users\\Psychology\\Documents\\ABExperiment\\MemoryStudy\\resources\\JPG\\ladybug03.jpg,C:\\Users\\Psychology\\Documents\\ABExperiment\\MemoryStudy\\resources\\JPG\\,0,65,65,65,,,,,,,37.12275189999491,None,1,0.2651099000067916,37.12275189999491,None,37.12275189999491,None,test,001,2022-06-22_11h04.58.267,MemoryStudy,2022.1.4,59.95469822707223,
Mem,1,magneticcompass.jpg,P,P,JPG\,magneticcompass,C:\\Users\\Psychology\\Documents\\ABExperiment\\MemoryStudy\\resources\\JPG\\magneticcompass.jpg,C:\\Users\\Psychology\\Documents\\ABExperiment\\MemoryStudy\\resources\\JPG\\,0,66,66,66,,,,,,,37.42303790000733,None,1,0.28366810001898557,37.42303790000733,None,37.42303790000733,None,test,001,2022-06-22_11h04.58.267,MemoryStudy,2022.1.4,59.95469822707223,
Mem,1,moose.jpg,P,P,JPG\,moose,C:\\Users\\Psychology\\Documents\\ABExperiment\\MemoryStudy\\resources\\JPG\\moose.jpg,C:\\Users\\Psychology\\Documents\\ABExperiment\\MemoryStudy\\resources\\JPG\\,0,67,67,67,,,,,,,37.740004899998894,None,1,0.28788109999732114,37.740004899998894,None,37.740004899998894,None,test,001,2022-06-22_11h04.58.267,MemoryStudy,2022.1.4,59.95469822707223,
Mem,1,peacock.jpg,P,P,JPG\,peacock,C:\\Users\\Psychology\\Documents\\ABExperiment\\MemoryStudy\\resources\\JPG\\peacock.jpg,C:\\Users\\Psychology\\Documents\\ABExperiment\\MemoryStudy\\resources\\JPG\\,0,68,68,68,,,,,,,38.05700090000755,None,1,0.2908486999804154,38.05700090000755,None,38.05700090000755,None,test,001,2022-06-22_11h04.58.267,MemoryStudy,2022.1.4,59.95469822707223,
Mem,1,rooster.jpg,P,P,JPG\,rooster,C:\\Users\\Psychology\\Documents\\ABExperiment\\MemoryStudy\\resources\\JPG\\rooster.jpg,C:\\Users\\Psychology\\Documents\\ABExperiment\\MemoryStudy\\resources\\JPG\\,0,69,69,69,,,,,,,38.3739774999849,None,1,0.2850073000008706,38.3739774999849,None,38.3739774999849,None,test,001,2022-06-22_11h04.58.267,MemoryStudy,2022.1.4,59.95469822707223,
Mem,1,sandcastle.jpg,P,P,JPG\,sandcastle,C:\\Users\\Psychology\\Documents\\ABExperiment\\MemoryStudy\\resources\\JPG\\sandcastle.jpg,C:\\Users\\Psychology\\Documents\\ABExperiment\\MemoryStudy\\resources\\JPG\\,0,70,70,70,,,,,,,38.691120400006184,None,1,0.2958570000191685,38.691120400006184,None,38.691120400006184,None,test,001,2022-06-22_11h04.58.267,MemoryStudy,2022.1.4,59.95469822707223,
Mem,1,sheep.jpg,P,P,JPG\,sheep,C:\\Users\\Psychology\\Documents\\ABExperiment\\MemoryStudy\\resources\\JPG\\sheep.jpg,C:\\Users\\Psychology\\Documents\\ABExperiment\\MemoryStudy\\resources\\JPG\\,0,71,71,71,,,,,,,39.00791859999299,None,1,0.29110440000658855,39.00791859999299,None,39.00791859999299,None,test,001,2022-06-22_11h04.58.267,MemoryStudy,2022.1.4,59.95469822707223,
Mem,1,spiderweb.jpg,P,P,JPG\,spiderweb,C:\\Users\\Psychology\\Documents\\ABExperiment\\MemoryStudy\\resources\\JPG\\spiderweb.jpg,C:\\Users\\Psychology\\Documents\\ABExperiment\\MemoryStudy\\resources\\JPG\\,0,72,72,72,,,,,,,39.32490579999285,None,1,0.310113999992609,39.32490579999285,None,39.32490579999285,None,test,001,2022-06-22_11h04.58.267,MemoryStudy,2022.1.4,59.95469822707223,
Mem,1,trampoline.jpg,P,P,JPG\,trampoline,C:\\Users\\Psychology\\Documents\\ABExperiment\\MemoryStudy\\resources\\JPG\\trampoline.jpg,C:\\Users\\Psychology\\Documents\\ABExperiment\\MemoryStudy\\resources\\JPG\\,0,73,73,73,,,,,,,39.65856939999503,None,1,0.3043321000004653,39.65856939999503,None,39.65856939999503,None,test,001,2022-06-22_11h04.58.267,MemoryStudy,2022.1.4,59.95469822707223,
Mem,1,trophy01.jpg,P,P,JPG\,trophy01,C:\\Users\\Psychology\\Documents\\ABExperiment\\MemoryStudy\\resources\\JPG\\trophy01.jpg,C:\\Users\\Psychology\\Documents\\ABExperiment\\MemoryStudy\\resources\\JPG\\,0,74,74,74,,,,,,,39.992219000007026,None,1,0.2745386999740731,39.992219000007026,None,39.992219000007026,None,test,001,2022-06-22_11h04.58.267,MemoryStudy,2022.1.4,59.95469822707223,
Mem,1,windmill.jpg,P,P,JPG\,windmill,C:\\Users\\Psychology\\Documents\\ABExperiment\\MemoryStudy\\resources\\JPG\\windmill.jpg,C:\\Users\\Psychology\\Documents\\ABExperiment\\MemoryStudy\\resources\\JPG\\,0,75,75,75,,,,,,,40.29253129998688,None,1,0.27929549998953007,40.29253129998688,None,40.29253129998688,None,test,001,2022-06-22_11h04.58.267,MemoryStudy,2022.1.4,59.95469822707223,
Mem,1,arrow02.jpg,P,P,JPG\,arrow02,C:\\Users\\Psychology\\Documents\\ABExperiment\\MemoryStudy\\resources\\JPG\\arrow02.jpg,C:\\Users\\Psychology\\Documents\\ABExperiment\\MemoryStudy\\resources\\JPG\\,0,76,76,76,,,,,,,40.59284500000649,None,1,0.2908639000088442,40.59284500000649,None,40.59284500000649,None,test,001,2022-06-22_11h04.58.267,MemoryStudy,2022.1.4,59.95469822707223,
Mem,1,birdhouse.jpg,P,P,JPG\,birdhouse,C:\\Users\\Psychology\\Documents\\ABExperiment\\MemoryStudy\\resources\\JPG\\birdhouse.jpg,C:\\Users\\Psychology\\Documents\\ABExperiment\\MemoryStudy\\resources\\JPG\\,0,77,77,77,,,,,,,40.90980299998773,None,1,0.2929288000159431,40.90980299998773,None,40.90980299998773,None,test,001,2022-06-22_11h04.58.267,MemoryStudy,2022.1.4,59.95469822707223,
Mem,1,bridge.jpg,P,P,JPG\,bridge,C:\\Users\\Psychology\\Documents\\ABExperiment\\MemoryStudy\\resources\\JPG\\bridge.jpg,C:\\Users\\Psychology\\Documents\\ABExperiment\\MemoryStudy\\resources\\JPG\\,0,78,78,78,,,,,,,41.232129499985604,None,1,0.28280059999087825,41.232129499985604,None,41.232129499985604,None,test,001,2022-06-22_11h04.58.267,MemoryStudy,2022.1.4,59.95469822707223,
Mem,1,cashregister01.jpg,P,P,JPG\,cashregister01,C:\\Users\\Psychology\\Documents\\ABExperiment\\MemoryStudy\\resources\\JPG\\cashregister01.jpg,C:\\Users\\Psychology\\Documents\\ABExperiment\\MemoryStudy\\resources\\JPG\\,0,79,79,79,,,,,,,41.543784699984826,None,1,0.25921889999881387,41.543784699984826,None,41.543784699984826,None,test,001,2022-06-22_11h04.58.267,MemoryStudy,2022.1.4,59.95469822707223,
Mem,1,dartboard.jpg,P,P,JPG\,dartboard,C:\\Users\\Psychology\\Documents\\ABExperiment\\MemoryStudy\\resources\\JPG\\dartboard.jpg,C:\\Users\\Psychology\\Documents\\ABExperiment\\MemoryStudy\\resources\\JPG\\,0,80,80,80,,,,,,,41.82720440000412,None,1,0.27984899998409674,41.82720440000412,None,41.82720440000412,None,test,001,2022-06-22_11h04.58.267,MemoryStudy,2022.1.4,59.95469822707223,
Mem,1,dreamcatcher.jpg,P,P,JPG\,dreamcatcher,C:\\Users\\Psychology\\Documents\\ABExperiment\\MemoryStudy\\resources\\JPG\\dreamcatcher.jpg,C:\\Users\\Psychology\\Documents\\ABExperiment\\MemoryStudy\\resources\\JPG\\,0,81,81,81,,,,,,,42.12698699999601,None,1,0.29198390000965446,42.12698699999601,None,42.12698699999601,None,test,001,2022-06-22_11h04.58.267,MemoryStudy,2022.1.4,59.95469822707223,
Mem,1,escalator.jpg,P,P,JPG\,escalator,C:\\Users\\Psychology\\Documents\\ABExperiment\\MemoryStudy\\resources\\JPG\\escalator.jpg,C:\\Users\\Psychology\\Documents\\ABExperiment\\MemoryStudy\\resources\\JPG\\,0,82,82,82,,,,,,,42.4439546999929,None,1,0.287038600014057,42.4439546999929,None,42.4439546999929,None,test,001,2022-06-22_11h04.58.267,MemoryStudy,2022.1.4,59.95469822707223,
Mem,1,firehydrant.jpg,P,P,JPG\,firehydrant,C:\\Users\\Psychology\\Documents\\ABExperiment\\MemoryStudy\\resources\\JPG\\firehydrant.jpg,C:\\Users\\Psychology\\Documents\\ABExperiment\\MemoryStudy\\resources\\JPG\\,0,83,83,83,,,,,,,42.76125059998594,None,1,0.290872199984733,42.76125059998594,None,42.76125059998594,None,test,001,2022-06-22_11h04.58.267,MemoryStudy,2022.1.4,59.95469822707223,
Mem,1,greatwhiteshark.jpg,P,P,JPG\,greatwhiteshark,C:\\Users\\Psychology\\Documents\\ABExperiment\\MemoryStudy\\resources\\JPG\\greatwhiteshark.jpg,C:\\Users\\Psychology\\Documents\\ABExperiment\\MemoryStudy\\resources\\JPG\\,0,84,84,84,,,,,,,43.07802559999982,None,1,0.26910390000557527,43.07802559999982,None,43.07802559999982,None,test,001,2022-06-22_11h04.58.267,MemoryStudy,2022.1.4,59.95469822707223,
Mem,1,helicopter.jpg,P,P,JPG\,helicopter,C:\\Users\\Psychology\\Documents\\ABExperiment\\MemoryStudy\\resources\\JPG\\helicopter.jpg,C:\\Users\\Psychology\\Documents\\ABExperiment\\MemoryStudy\\resources\\JPG\\,0,85,85,85,,,,,,,43.37851650000084,None,1,0.2819622000097297,43.37851650000084,None,43.37851650000084,None,test,001,2022-06-22_11h04.58.267,MemoryStudy,2022.1.4,59.95469822707223,
Mem,1,smokingsign.jpg,P,P,JPG\,smokingsign,C:\\Users\\Psychology\\Documents\\ABExperiment\\MemoryStudy\\resources\\JPG\\smokingsign.jpg,C:\\Users\\Psychology\\Documents\\ABExperiment\\MemoryStudy\\resources\\JPG\\,0,86,86,86,,,,,,,43.69629029999487,None,1,0.29892800000379793,43.69629029999487,None,43.69629029999487,None,test,001,2022-06-22_11h04.58.267,MemoryStudy,2022.1.4,59.95469822707223,
Mem,1,barnowl.jpg,P,P,JPG\,barnowl,C:\\Users\\Psychology\\Documents\\ABExperiment\\MemoryStudy\\resources\\JPG\\barnowl.jpg,C:\\Users\\Psychology\\Documents\\ABExperiment\\MemoryStudy\\resources\\JPG\\,0,87,87,87,,,,,,,44.10688830001163,None,1,0.19256309999036603,44.10688830001163,None,44.10688830001163,None,test,001,2022-06-22_11h04.58.267,MemoryStudy,2022.1.4,59.95469822707223,
Mem,1,pig.jpg,P,P,JPG\,pig,C:\\Users\\Psychology\\Documents\\ABExperiment\\MemoryStudy\\resources\\JPG\\pig.jpg,C:\\Users\\Psychology\\Documents\\ABExperiment\\MemoryStudy\\resources\\JPG\\,0,88,88,88,,,,,,,44.32984399999259,None,1,0.2573380999965593,44.32984399999259,None,44.32984399999259,None,test,001,2022-06-22_11h04.58.267,MemoryStudy,2022.1.4,59.95469822707223,
Mem,1,polarbear.jpg,P,P,JPG\,polarbear,C:\\Users\\Psychology\\Documents\\ABExperiment\\MemoryStudy\\resources\\JPG\\polarbear.jpg,C:\\Users\\Psychology\\Documents\\ABExperiment\\MemoryStudy\\resources\\JPG\\,0,89,89,89,,,,,,,44.61347700000624,None,1,0.2861300999938976,44.61347700000624,None,44.61347700000624,None,test,001,2022-06-22_11h04.58.267,MemoryStudy,2022.1.4,59.95469822707223,
Mem,1,sandbarshark.jpg,P,P,JPG\,sandbarshark,C:\\Users\\Psychology\\Documents\\ABExperiment\\MemoryStudy\\resources\\JPG\\sandbarshark.jpg,C:\\Users\\Psychology\\Documents\\ABExperiment\\MemoryStudy\\resources\\JPG\\,0,90,90,90,,,,,,,44.992195900005754,None,1,0.24307530000805855,44.992195900005754,None,44.992195900005754,None,test,001,2022-06-22_11h04.58.267,MemoryStudy,2022.1.4,59.95469822707223,
Mem,1,telescope.jpg,P,P,JPG\,telescope,C:\\Users\\Psychology\\Documents\\ABExperiment\\MemoryStudy\\resources\\JPG\\telescope.jpg,C:\\Users\\Psychology\\Documents\\ABExperiment\\MemoryStudy\\resources\\JPG\\,0,91,91,91,,,,,,,45.266350299993064,None,1,0.28076490000239573,45.266350299993064,None,45.266350299993064,None,test,001,2022-06-22_11h04.58.267,MemoryStudy,2022.1.4,59.95469822707223,
Mem,1,tent.jpg,P,P,JPG\,tent,C:\\Users\\Psychology\\Documents\\ABExperiment\\MemoryStudy\\resources\\JPG\\tent.jpg,C:\\Users\\Psychology\\Documents\\ABExperiment\\MemoryStudy\\resources\\JPG\\,0,92,92,92,,,,,,,45.58395040000323,None,1,0.24319589999504387,45.58395040000323,None,45.58395040000323,None,test,001,2022-06-22_11h04.58.267,MemoryStudy,2022.1.4,59.95469822707223,
Mem,1,toilet.jpg,P,P,JPG\,toilet,C:\\Users\\Psychology\\Documents\\ABExperiment\\MemoryStudy\\resources\\JPG\\toilet.jpg,C:\\Users\\Psychology\\Documents\\ABExperiment\\MemoryStudy\\resources\\JPG\\,0,93,93,93,,,,,,,45.85296270000981,None,1,0.2942265000019688,45.85296270000981,None,45.85296270000981,None,test,001,2022-06-22_11h04.58.267,MemoryStudy,2022.1.4,59.95469822707223,
Mem,1,tricycle.jpg,P,P,JPG\,tricycle,C:\\Users\\Psychology\\Documents\\ABExperiment\\MemoryStudy\\resources\\JPG\\tricycle.jpg,C:\\Users\\Psychology\\Documents\\ABExperiment\\MemoryStudy\\resources\\JPG\\,0,94,94,94,,,,,,,46.18067470000824,None,1,0.2863778999890201,46.18067470000824,None,46.18067470000824,None,test,001,2022-06-22_11h04.58.267,MemoryStudy,2022.1.4,59.95469822707223,
Mem,1,rubikcube.jpg,P,P,JPG\,rubikcube,C:\\Users\\Psychology\\Documents\\ABExperiment\\MemoryStudy\\resources\\JPG\\rubikcube.jpg,C:\\Users\\Psychology\\Documents\\ABExperiment\\MemoryStudy\\resources\\JPG\\,0,95,95,95,,,,,,,46.49845590000041,None,1,0.29643180000130087,46.49845590000041,None,46.49845590000041,None,test,001,2022-06-22_11h04.58.267,MemoryStudy,2022.1.4,59.95469822707223,
Mem,1,anchor.jpg,P,P,JPG\,anchor,C:\\Users\\Psychology\\Documents\\ABExperiment\\MemoryStudy\\resources\\JPG\\anchor.jpg,C:\\Users\\Psychology\\Documents\\ABExperiment\\MemoryStudy\\resources\\JPG\\,0,96,96,96,,,,,,,46.815187900007004,None,1,0.275565199990524,46.815187900007004,None,46.815187900007004,None,test,001,2022-06-22_11h04.58.267,MemoryStudy,2022.1.4,59.95469822707223,
Mem,1,beerbottle.jpg,P,P,JPG\,beerbottle,C:\\Users\\Psychology\\Documents\\ABExperiment\\MemoryStudy\\resources\\JPG\\beerbottle.jpg,C:\\Users\\Psychology\\Documents\\ABExperiment\\MemoryStudy\\resources\\JPG\\,0,97,97,97,,,,,,,47.115366799989715,None,1,0.31164840000565164,47.115366799989715,None,47.115366799989715,None,test,001,2022-06-22_11h04.58.267,MemoryStudy,2022.1.4,59.95469822707223,
Mem,1,bowtie.jpg,P,P,JPG\,bowtie,C:\\Users\\Psychology\\Documents\\ABExperiment\\MemoryStudy\\resources\\JPG\\bowtie.jpg,C:\\Users\\Psychology\\Documents\\ABExperiment\\MemoryStudy\\resources\\JPG\\,0,98,98,98,,,,,,,47.44921359998989,None,1,0.2905349000066053,47.44921359998989,None,47.44921359998989,None,test,001,2022-06-22_11h04.58.267,MemoryStudy,2022.1.4,59.95469822707223,
Mem,1,cannon.jpg,P,P,JPG\,cannon,C:\\Users\\Psychology\\Documents\\ABExperiment\\MemoryStudy\\resources\\JPG\\cannon.jpg,C:\\Users\\Psychology\\Documents\\ABExperiment\\MemoryStudy\\resources\\JPG\\,0,99,99,99,,,,,,,47.76652929998818,None,1,0.2682436000031885,47.76652929998818,None,47.76652929998818,None,test,001,2022-06-22_11h04.58.267,MemoryStudy,2022.1.4,59.95469822707223,
Mem,1,cat.jpg,P,P,JPG\,cat,C:\\Users\\Psychology\\Documents\\ABExperiment\\MemoryStudy\\resources\\JPG\\cat.jpg,C:\\Users\\Psychology\\Documents\\ABExperiment\\MemoryStudy\\resources\\JPG\\,0,100,100,100,,,,,,,48.06989449998946,None,1,0.26974230000632815,48.06989449998946,None,48.06989449998946,None,test,001,2022-06-22_11h04.58.267,MemoryStudy,2022.1.4,59.95469822707223,
Mem,1,chair.jpg,P,P,JPG\,chair,C:\\Users\\Psychology\\Documents\\ABExperiment\\MemoryStudy\\resources\\JPG\\chair.jpg,C:\\Users\\Psychology\\Documents\\ABExperiment\\MemoryStudy\\resources\\JPG\\,0,101,101,101,,,,,,,48.37056720000692,None,1,0.2560835999902338,48.37056720000692,None,48.37056720000692,None,test,001,2022-06-22_11h04.58.267,MemoryStudy,2022.1.4,59.95469822707223,
Mem,1,cross01.jpg,P,P,JPG\,cross01,C:\\Users\\Psychology\\Documents\\ABExperiment\\MemoryStudy\\resources\\JPG\\cross01.jpg,C:\\Users\\Psychology\\Documents\\ABExperiment\\MemoryStudy\\resources\\JPG\\,0,102,102,102,,,,,,,48.65158919998794,None,1,0.29638539999723434,48.65158919998794,None,48.65158919998794,None,test,001,2022-06-22_11h04.58.267,MemoryStudy,2022.1.4,59.95469822707223,
Mem,1,englishcucumber.jpg,P,P,JPG\,englishcucumber,C:\\Users\\Psychology\\Documents\\ABExperiment\\MemoryStudy\\resources\\JPG\\englishcucumber.jpg,C:\\Users\\Psychology\\Documents\\ABExperiment\\MemoryStudy\\resources\\JPG\\,0,103,103,103,,,,,,,48.9683543999854,None,1,0.27492299998993985,48.9683543999854,None,48.9683543999854,None,test,001,2022-06-22_11h04.58.267,MemoryStudy,2022.1.4,59.95469822707223,
Mem,1,frisbee.jpg,P,P,JPG\,frisbee,C:\\Users\\Psychology\\Documents\\ABExperiment\\MemoryStudy\\resources\\JPG\\frisbee.jpg,C:\\Users\\Psychology\\Documents\\ABExperiment\\MemoryStudy\\resources\\JPG\\,0,104,104,104,,,,,,,49.2784202999901,None,1,0.26123760000336915,49.2784202999901,None,49.2784202999901,None,test,001,2022-06-22_11h04.58.267,MemoryStudy,2022.1.4,59.95469822707223,
Mem,1,granolabar01.jpg,P,P,JPG\,granolabar01,C:\\Users\\Psychology\\Documents\\ABExperiment\\MemoryStudy\\resources\\JPG\\granolabar01.jpg,C:\\Users\\Psychology\\Documents\\ABExperiment\\MemoryStudy\\resources\\JPG\\,0,105,105,105,,,,,,,49.57109340000898,None,1,0.27167720001307316,49.57109340000898,None,49.57109340000898,None,test,001,2022-06-22_11h04.58.267,MemoryStudy,2022.1.4,59.95469822707223,
Mem,1,jeans01.jpg,P,P,JPG\,jeans01,C:\\Users\\Psychology\\Documents\\ABExperiment\\MemoryStudy\\resources\\JPG\\jeans01.jpg,C:\\Users\\Psychology\\Documents\\ABExperiment\\MemoryStudy\\resources\\JPG\\,0,106,106,106,,,,,,,49.86929629999213,None,1,0.2778596999705769,49.86929629999213,None,49.86929629999213,None,test,001,2022-06-22_11h04.58.267,MemoryStudy,2022.1.4,59.95469822707223,
Mem,1,jeep.jpg,P,P,JPG\,jeep,C:\\Users\\Psychology\\Documents\\ABExperiment\\MemoryStudy\\resources\\JPG\\jeep.jpg,C:\\Users\\Psychology\\Documents\\ABExperiment\\MemoryStudy\\resources\\JPG\\,0,107,107,107,,,,,,,50.17937749999692,None,1,0.26352809998206794,50.17937749999692,None,50.17937749999692,None,test,001,2022-06-22_11h04.58.267,MemoryStudy,2022.1.4,59.95469822707223,
Mem,1,knee.jpg,P,P,JPG\,knee,C:\\Users\\Psychology\\Documents\\ABExperiment\\MemoryStudy\\resources\\JPG\\knee.jpg,C:\\Users\\Psychology\\Documents\\ABExperiment\\MemoryStudy\\resources\\JPG\\,0,108,108,108,,,,,,,50.469823699997505,None,1,0.269235200015828,50.469823699997505,None,50.469823699997505,None,test,001,2022-06-22_11h04.58.267,MemoryStudy,2022.1.4,59.95469822707223,
Mem,1,lighthouse.jpg,P,P,JPG\,lighthouse,C:\\Users\\Psychology\\Documents\\ABExperiment\\MemoryStudy\\resources\\JPG\\lighthouse.jpg,C:\\Users\\Psychology\\Documents\\ABExperiment\\MemoryStudy\\resources\\JPG\\,0,109,109,109,,,,,,,50.770091999991564,None,1,0.24895239996840246,50.770091999991564,None,50.770091999991564,None,test,001,2022-06-22_11h04.58.267,MemoryStudy,2022.1.4,59.95469822707223,
Mem,1,lion.jpg,P,P,JPG\,lion,C:\\Users\\Psychology\\Documents\\ABExperiment\\MemoryStudy\\resources\\JPG\\lion.jpg,C:\\Users\\Psychology\\Documents\\ABExperiment\\MemoryStudy\\resources\\JPG\\,0,110,110,110,,,,,,,51.05366400000639,None,1,0.2546620999928564,51.05366400000639,None,51.05366400000639,None,test,001,2022-06-22_11h04.58.267,MemoryStudy,2022.1.4,59.95469822707223,
Mem,1,microphone01.jpg,P,P,JPG\,microphone01,C:\\Users\\Psychology\\Documents\\ABExperiment\\MemoryStudy\\resources\\JPG\\microphone01.jpg,C:\\Users\\Psychology\\Documents\\ABExperiment\\MemoryStudy\\resources\\JPG\\,0,111,111,111,,,,,,,51.33756159999757,None,1,0.2740044000092894,51.33756159999757,None,51.33756159999757,None,test,001,2022-06-22_11h04.58.267,MemoryStudy,2022.1.4,59.95469822707223,
Mem,1,1nose.jpg,P,P,JPG\,1nose,C:\\Users\\Psychology\\Documents\\ABExperiment\\MemoryStudy\\resources\\JPG\\1nose.jpg,C:\\Users\\Psychology\\Documents\\ABExperiment\\MemoryStudy\\resources\\JPG\\,0,112,112,112,,,,,,,51.640477999986615,None,1,0.2510998999932781,51.640477999986615,None,51.640477999986615,None,test,001,2022-06-22_11h04.58.267,MemoryStudy,2022.1.4,59.95469822707223,
Mem,1,ostrich.jpg,P,P,JPG\,ostrich,C:\\Users\\Psychology\\Documents\\ABExperiment\\MemoryStudy\\resources\\JPG\\ostrich.jpg,C:\\Users\\Psychology\\Documents\\ABExperiment\\MemoryStudy\\resources\\JPG\\,0,113,113,113,,,,,,,51.92140349998954,None,1,0.2984735000063665,51.92140349998954,None,51.92140349998954,None,test,001,2022-06-22_11h04.58.267,MemoryStudy,2022.1.4,59.95469822707223,
Mem,1,porcupine.jpg,P,P,JPG\,porcupine,C:\\Users\\Psychology\\Documents\\ABExperiment\\MemoryStudy\\resources\\JPG\\porcupine.jpg,C:\\Users\\Psychology\\Documents\\ABExperiment\\MemoryStudy\\resources\\JPG\\,0,114,114,114,,,,,,,52.255072500003735,None,1,0.28374949999852106,52.255072500003735,None,52.255072500003735,None,test,001,2022-06-22_11h04.58.267,MemoryStudy,2022.1.4,59.95469822707223,
Mem,1,redfox.jpg,P,P,JPG\,redfox,C:\\Users\\Psychology\\Documents\\ABExperiment\\MemoryStudy\\resources\\JPG\\redfox.jpg,C:\\Users\\Psychology\\Documents\\ABExperiment\\MemoryStudy\\resources\\JPG\\,0,115,115,115,,,,,,,52.58168139998452,None,1,0.2532053999893833,52.58168139998452,None,52.58168139998452,None,test,001,2022-06-22_11h04.58.267,MemoryStudy,2022.1.4,59.95469822707223,
Mem,1,seal.jpg,P,P,JPG\,seal,C:\\Users\\Psychology\\Documents\\ABExperiment\\MemoryStudy\\resources\\JPG\\seal.jpg,C:\\Users\\Psychology\\Documents\\ABExperiment\\MemoryStudy\\resources\\JPG\\,0,116,116,116,,,,,,,52.85549549999996,None,1,0.2597271999984514,52.85549549999996,None,52.85549549999996,None,test,001,2022-06-22_11h04.58.267,MemoryStudy,2022.1.4,59.95469822707223,
Mem,1,stool01.jpg,P,P,JPG\,stool01,C:\\Users\\Psychology\\Documents\\ABExperiment\\MemoryStudy\\resources\\JPG\\stool01.jpg,C:\\Users\\Psychology\\Documents\\ABExperiment\\MemoryStudy\\resources\\JPG\\,0,117,117,117,,,,,,,53.1392033000011,None,1,0.24819819998811,53.1392033000011,None,53.1392033000011,None,test,001,2022-06-22_11h04.58.267,MemoryStudy,2022.1.4,59.95469822707223,
Mem,1,toolbox02.jpg,P,P,JPG\,toolbox02,C:\\Users\\Psychology\\Documents\\ABExperiment\\MemoryStudy\\resources\\JPG\\toolbox02.jpg,C:\\Users\\Psychology\\Documents\\ABExperiment\\MemoryStudy\\resources\\JPG\\,0,118,118,118,,,,,,,53.42276960000163,None,1,0.22819699998944998,53.42276960000163,None,53.42276960000163,None,test,001,2022-06-22_11h04.58.267,MemoryStudy,2022.1.4,59.95469822707223,
Mem,1,treadmill.jpg,P,P,JPG\,treadmill,C:\\Users\\Psychology\\Documents\\ABExperiment\\MemoryStudy\\resources\\JPG\\treadmill.jpg,C:\\Users\\Psychology\\Documents\\ABExperiment\\MemoryStudy\\resources\\JPG\\,0,119,119,119,,,,,,,53.673148100002436,None,1,0.2578716000134591,53.673148100002436,None,53.673148100002436,None,test,001,2022-06-22_11h04.58.267,MemoryStudy,2022.1.4,59.95469822707223,
Mem,1,uprightpiano01.jpg,P,P,JPG\,uprightpiano01,C:\\Users\\Psychology\\Documents\\ABExperiment\\MemoryStudy\\resources\\JPG\\uprightpiano01.jpg,C:\\Users\\Psychology\\Documents\\ABExperiment\\MemoryStudy\\resources\\JPG\\,0,120,120,120,,,,,,,53.956781299988506,None,1,0.25437029998283833,53.956781299988506,None,53.956781299988506,None,test,001,2022-06-22_11h04.58.267,MemoryStudy,2022.1.4,59.95469822707223,
Mem,1,wallclock.jpg,P,P,JPG\,wallclock,C:\\Users\\Psychology\\Documents\\ABExperiment\\MemoryStudy\\resources\\JPG\\wallclock.jpg,C:\\Users\\Psychology\\Documents\\ABExperiment\\MemoryStudy\\resources\\JPG\\,0,121,121,121,,,,,,,54.24997020000592,None,1,0.22520270000677556,54.24997020000592,None,54.24997020000592,None,test,001,2022-06-22_11h04.58.267,MemoryStudy,2022.1.4,59.95469822707223,
Mem,1,horseshoe.jpg,P,P,JPG\,horseshoe,C:\\Users\\Psychology\\Documents\\ABExperiment\\MemoryStudy\\resources\\JPG\\horseshoe.jpg,C:\\Users\\Psychology\\Documents\\ABExperiment\\MemoryStudy\\resources\\JPG\\,0,122,122,122,,,,,,,54.516843199991854,None,1,0.28656549999141134,54.516843199991854,None,54.516843199991854,None,test,001,2022-06-22_11h04.58.267,MemoryStudy,2022.1.4,59.95469822707223,
Mem,1,ant.jpg,P,P,JPG\,ant,C:\\Users\\Psychology\\Documents\\ABExperiment\\MemoryStudy\\resources\\JPG\\ant.jpg,C:\\Users\\Psychology\\Documents\\ABExperiment\\MemoryStudy\\resources\\JPG\\,0,123,123,123,,,,,,,54.82403990000603,None,1,0.28343179999501444,54.82403990000603,None,54.82403990000603,None,test,001,2022-06-22_11h04.58.267,MemoryStudy,2022.1.4,59.95469822707223,
Mem,1,barrel01.jpg,P,P,JPG\,barrel01,C:\\Users\\Psychology\\Documents\\ABExperiment\\MemoryStudy\\resources\\JPG\\barrel01.jpg,C:\\Users\\Psychology\\Documents\\ABExperiment\\MemoryStudy\\resources\\JPG\\,0,124,124,124,,,,,,,55.14112419998855,None,1,0.23760569997830316,55.14112419998855,None,55.14112419998855,None,test,001,2022-06-22_11h04.58.267,MemoryStudy,2022.1.4,59.95469822707223,
Mem,1,bull.jpg,P,P,JPG\,bull,C:\\Users\\Psychology\\Documents\\ABExperiment\\MemoryStudy\\resources\\JPG\\bull.jpg,C:\\Users\\Psychology\\Documents\\ABExperiment\\MemoryStudy\\resources\\JPG\\,0,125,125,125,,,,,,,55.40819369998644,None,1,0.23476289998507127,55.40819369998644,None,55.40819369998644,None,test,001,2022-06-22_11h04.58.267,MemoryStudy,2022.1.4,59.95469822707223,
Mem,1,calendar.jpg,P,P,JPG\,calendar,C:\\Users\\Psychology\\Documents\\ABExperiment\\MemoryStudy\\resources\\JPG\\calendar.jpg,C:\\Users\\Psychology\\Documents\\ABExperiment\\MemoryStudy\\resources\\JPG\\,0,126,126,126,,,,,,,55.68465109998942,None,1,0.23918459998094477,55.68465109998942,None,55.68465109998942,None,test,001,2022-06-22_11h04.58.267,MemoryStudy,2022.1.4,59.95469822707223,
Mem,1,chimney.jpg,P,P,JPG\,chimney,C:\\Users\\Psychology\\Documents\\ABExperiment\\MemoryStudy\\resources\\JPG\\chimney.jpg,C:\\Users\\Psychology\\Documents\\ABExperiment\\MemoryStudy\\resources\\JPG\\,0,127,127,127,,,,,,,55.95863109998754,None,1,0.2361996999825351,55.95863109998754,None,55.95863109998754,None,test,001,2022-06-22_11h04.58.267,MemoryStudy,2022.1.4,59.95469822707223,
Mem,1,christmastree.jpg,P,P,JPG\,christmastree,C:\\Users\\Psychology\\Documents\\ABExperiment\\MemoryStudy\\resources\\JPG\\christmastree.jpg,C:\\Users\\Psychology\\Documents\\ABExperiment\\MemoryStudy\\resources\\JPG\\,0,128,128,128,,,,,,,56.22550279999268,None,1,0.2492160999972839,56.22550279999268,None,56.22550279999268,None,test,001,2022-06-22_11h04.58.267,MemoryStudy,2022.1.4,59.95469822707223,
Mem,1,crown.jpg,P,P,JPG\,crown,C:\\Users\\Psychology\\Documents\\ABExperiment\\MemoryStudy\\resources\\JPG\\crown.jpg,C:\\Users\\Psychology\\Documents\\ABExperiment\\MemoryStudy\\resources\\JPG\\,0,129,129,129,,,,,,,56.50937889999477,None,1,0.2463397000101395,56.50937889999477,None,56.50937889999477,None,test,001,2022-06-22_11h04.58.267,MemoryStudy,2022.1.4,59.95469822707223,
Mem,1,curtain.jpg,P,P,JPG\,curtain,C:\\Users\\Psychology\\Documents\\ABExperiment\\MemoryStudy\\resources\\JPG\\curtain.jpg,C:\\Users\\Psychology\\Documents\\ABExperiment\\MemoryStudy\\resources\\JPG\\,0,130,130,130,,,,,,,56.77616179999313,None,1,0.2507773000106681,56.77616179999313,None,56.77616179999313,None,test,001,2022-06-22_11h04.58.267,MemoryStudy,2022.1.4,59.95469822707223,
Mem,1,daddylonglegs.jpg,P,P,JPG\,daddylonglegs,C:\\Users\\Psychology\\Documents\\ABExperiment\\MemoryStudy\\resources\\JPG\\daddylonglegs.jpg,C:\\Users\\Psychology\\Documents\\ABExperiment\\MemoryStudy\\resources\\JPG\\,0,131,131,131,,,,,,,57.05977210000856,None,1,0.2633749999804422,57.05977210000856,None,57.05977210000856,None,test,001,2022-06-22_11h04.58.267,MemoryStudy,2022.1.4,59.95469822707223,
Mem,5,elbow.jpg,P,P,JPG\,elbow,C:\\Users\\Psychology\\Documents\\ABExperiment\\MemoryStudy\\resources\\JPG\\elbow.jpg,C:\\Users\\Psychology\\Documents\\ABExperiment\\MemoryStudy\\resources\\JPG\\,0,132,132,132,,,,,,,57.343015199992806,None,1,0.2681353000225499,57.343015199992806,None,57.343015199992806,None,test,001,2022-06-22_11h04.58.267,MemoryStudy,2022.1.4,59.95469822707223,
Mem,5,fireplace.jpg,P,P,JPG\,fireplace,C:\\Users\\Psychology\\Documents\\ABExperiment\\MemoryStudy\\resources\\JPG\\fireplace.jpg,C:\\Users\\Psychology\\Documents\\ABExperiment\\MemoryStudy\\resources\\JPG\\,0,133,133,133,,,,,,,57.65355719998479,None,1,0.25356579999788664,57.65355719998479,None,57.65355719998479,None,test,001,2022-06-22_11h04.58.267,MemoryStudy,2022.1.4,59.95469822707223,
Mem,5,greywolf.jpg,P,P,JPG\,greywolf,C:\\Users\\Psychology\\Documents\\ABExperiment\\MemoryStudy\\resources\\JPG\\greywolf.jpg,C:\\Users\\Psychology\\Documents\\ABExperiment\\MemoryStudy\\resources\\JPG\\,0,134,134,134,,,,,,,57.9271524999931,None,1,0.2917932000127621,57.9271524999931,None,57.9271524999931,None,test,001,2022-06-22_11h04.58.267,MemoryStudy,2022.1.4,59.95469822707223,
Mem,5,jackrabbit.jpg,P,P,JPG\,jackrabbit,C:\\Users\\Psychology\\Documents\\ABExperiment\\MemoryStudy\\resources\\JPG\\jackrabbit.jpg,C:\\Users\\Psychology\\Documents\\ABExperiment\\MemoryStudy\\resources\\JPG\\,0,135,135,135,,,,,,,58.253905299992766,None,1,0.22221389997866936,58.253905299992766,None,58.253905299992766,None,test,001,2022-06-22_11h04.58.267,MemoryStudy,2022.1.4,59.95469822707223,
Mem,5,jellyfish.jpg,P,P,JPG\,jellyfish,C:\\Users\\Psychology\\Documents\\ABExperiment\\MemoryStudy\\resources\\JPG\\jellyfish.jpg,C:\\Users\\Psychology\\Documents\\ABExperiment\\MemoryStudy\\resources\\JPG\\,0,136,136,136,,,,,,,58.511160299996845,None,1,0.2519896999874618,58.511160299996845,None,58.511160299996845,None,test,001,2022-06-22_11h04.58.267,MemoryStudy,2022.1.4,59.95469822707223,
Mem,5,leafrake.jpg,P,P,JPG\,leafrake,C:\\Users\\Psychology\\Documents\\ABExperiment\\MemoryStudy\\resources\\JPG\\leafrake.jpg,C:\\Users\\Psychology\\Documents\\ABExperiment\\MemoryStudy\\resources\\JPG\\,0,137,137,137,,,,,,,58.794915500009665,None,1,0.2322363999846857,58.794915500009665,None,58.794915500009665,None,test,001,2022-06-22_11h04.58.267,MemoryStudy,2022.1.4,59.95469822707223,
Mem,5,motorcycle.jpg,P,P,JPG\,motorcycle,C:\\Users\\Psychology\\Documents\\ABExperiment\\MemoryStudy\\resources\\JPG\\motorcycle.jpg,C:\\Users\\Psychology\\Documents\\ABExperiment\\MemoryStudy\\resources\\JPG\\,0,138,138,138,,,,,,,59.06148249999387,None,1,0.2698122999863699,59.06148249999387,None,59.06148249999387,None,test,001,2022-06-22_11h04.58.267,MemoryStudy,2022.1.4,59.95469822707223,
Mem,5,mouse.jpg,P,P,JPG\,mouse,C:\\Users\\Psychology\\Documents\\ABExperiment\\MemoryStudy\\resources\\JPG\\mouse.jpg,C:\\Users\\Psychology\\Documents\\ABExperiment\\MemoryStudy\\resources\\JPG\\,0,139,139,139,,,,,,,59.362229899998056,None,1,0.2569624000170734,59.362229899998056,None,59.362229899998056,None,test,001,2022-06-22_11h04.58.267,MemoryStudy,2022.1.4,59.95469822707223,
Mem,5,lip.jpg,P,P,JPG\,lip,C:\\Users\\Psychology\\Documents\\ABExperiment\\MemoryStudy\\resources\\JPG\\lip.jpg,C:\\Users\\Psychology\\Documents\\ABExperiment\\MemoryStudy\\resources\\JPG\\,0,140,140,140,,,,,,,59.64579000000958,None,1,0.2375774999964051,59.64579000000958,None,59.64579000000958,None,test,001,2022-06-22_11h04.58.267,MemoryStudy,2022.1.4,59.95469822707223,
Mem,5,mummy.jpg,P,P,JPG\,mummy,C:\\Users\\Psychology\\Documents\\ABExperiment\\MemoryStudy\\resources\\JPG\\mummy.jpg,C:\\Users\\Psychology\\Documents\\ABExperiment\\MemoryStudy\\resources\\JPG\\,0,141,141,141,,,,,,,59.9125667999906,None,1,0.23481759999413043,59.9125667999906,None,59.9125667999906,None,test,001,2022-06-22_11h04.58.267,MemoryStudy,2022.1.4,59.95469822707223,
Mem,5,saltshaker03a.jpg,P,P,JPG\,saltshaker03a,C:\\Users\\Psychology\\Documents\\ABExperiment\\MemoryStudy\\resources\\JPG\\saltshaker03a.jpg,C:\\Users\\Psychology\\Documents\\ABExperiment\\MemoryStudy\\resources\\JPG\\,0,142,142,142,,,,,,,60.17940359999193,None,1,0.24003459999221377,60.17940359999193,None,60.17940359999193,None,test,001,2022-06-22_11h04.58.267,MemoryStudy,2022.1.4,59.95469822707223,
Mem,5,scorpion.jpg,P,P,JPG\,scorpion,C:\\Users\\Psychology\\Documents\\ABExperiment\\MemoryStudy\\resources\\JPG\\scorpion.jpg,C:\\Users\\Psychology\\Documents\\ABExperiment\\MemoryStudy\\resources\\JPG\\,0,143,143,143,,,,,,,60.44617010001093,None,1,0.2381403999752365,60.44617010001093,None,60.44617010001093,None,test,001,2022-06-22_11h04.58.267,MemoryStudy,2022.1.4,59.95469822707223,
Mem,5,showerhead01.jpg,P,P,JPG\,showerhead01,C:\\Users\\Psychology\\Documents\\ABExperiment\\MemoryStudy\\resources\\JPG\\showerhead01.jpg,C:\\Users\\Psychology\\Documents\\ABExperiment\\MemoryStudy\\resources\\JPG\\,0,144,144,144,,,,,,,60.71326349998708,None,1,0.24193090002518147,60.71326349998708,None,60.71326349998708,None,test,001,2022-06-22_11h04.58.267,MemoryStudy,2022.1.4,59.95469822707223,
Mem,5,floorlamp.jpg,P,P,JPG\,floorlamp,C:\\Users\\Psychology\\Documents\\ABExperiment\\MemoryStudy\\resources\\JPG\\floorlamp.jpg,C:\\Users\\Psychology\\Documents\\ABExperiment\\MemoryStudy\\resources\\JPG\\,0,145,145,145,,,,,,,60.99006119999103,None,1,0.25342249998357147,60.99006119999103,None,60.99006119999103,None,test,001,2022-06-22_11h04.58.267,MemoryStudy,2022.1.4,59.95469822707223,
Mem,5,statue.jpg,P,P,JPG\,statue,C:\\Users\\Psychology\\Documents\\ABExperiment\\MemoryStudy\\resources\\JPG\\statue.jpg,C:\\Users\\Psychology\\Documents\\ABExperiment\\MemoryStudy\\resources\\JPG\\,0,146,146,146,,,,,,,61.264042900002096,None,1,0.2593825999938417,61.264042900002096,None,61.264042900002096,None,test,001,2022-06-22_11h04.58.267,MemoryStudy,2022.1.4,59.95469822707223,
Mem,5,witchhat.jpg,P,P,JPG\,witchhat,C:\\Users\\Psychology\\Documents\\ABExperiment\\MemoryStudy\\resources\\JPG\\witchhat.jpg,C:\\Users\\Psychology\\Documents\\ABExperiment\\MemoryStudy\\resources\\JPG\\,0,147,147,147,,,,,,,61.54740049998509,None,1,0.24038020000443794,61.54740049998509,None,61.54740049998509,None,test,001,2022-06-22_11h04.58.267,MemoryStudy,2022.1.4,59.95469822707223,
Mem,5,cigar.jpg,P,P,JPG\,cigar,C:\\Users\\Psychology\\Documents\\ABExperiment\\MemoryStudy\\resources\\JPG\\cigar.jpg,C:\\Users\\Psychology\\Documents\\ABExperiment\\MemoryStudy\\resources\\JPG\\,0,148,148,148,,,,,,,61.814716699998826,None,1,0.23624200001358986,61.814716699998826,None,61.814716699998826,None,test,001,2022-06-22_11h04.58.267,MemoryStudy,2022.1.4,59.95469822707223,
Mem,5,banjo.jpg,P,P,JPG\,banjo,C:\\Users\\Psychology\\Documents\\ABExperiment\\MemoryStudy\\resources\\JPG\\banjo.jpg,C:\\Users\\Psychology\\Documents\\ABExperiment\\MemoryStudy\\resources\\JPG\\,0,149,149,149,,,,,,,62.09126290000859,None,1,0.2237613000033889,62.09126290000859,None,62.09126290000859,None,test,001,2022-06-22_11h04.58.267,MemoryStudy,2022.1.4,59.95469822707223,
Mem,5,bathtub.jpg,P,P,JPG\,bathtub,C:\\Users\\Psychology\\Documents\\ABExperiment\\MemoryStudy\\resources\\JPG\\bathtub.jpg,C:\\Users\\Psychology\\Documents\\ABExperiment\\MemoryStudy\\resources\\JPG\\,0,150,150,150,,,,,,,62.34819640000933,None,1,0.25484949999372475,62.34819640000933,None,62.34819640000933,None,test,001,2022-06-22_11h04.58.267,MemoryStudy,2022.1.4,59.95469822707223,
Mem,5,bumpercar.jpg,P,P,JPG\,bumpercar,C:\\Users\\Psychology\\Documents\\ABExperiment\\MemoryStudy\\resources\\JPG\\bumpercar.jpg,C:\\Users\\Psychology\\Documents\\ABExperiment\\MemoryStudy\\resources\\JPG\\,0,151,151,151,,,,,,,62.631962099985685,None,1,0.22706899998593144,62.631962099985685,None,62.631962099985685,None,test,001,2022-06-22_11h04.58.267,MemoryStudy,2022.1.4,59.95469822707223,
Mem,5,cruiseship.jpg,P,P,JPG\,cruiseship,C:\\Users\\Psychology\\Documents\\ABExperiment\\MemoryStudy\\resources\\JPG\\cruiseship.jpg,C:\\Users\\Psychology\\Documents\\ABExperiment\\MemoryStudy\\resources\\JPG\\,0,152,152,152,,,,,,,62.891964899987215,None,1,0.23104409998632036,62.891964899987215,None,62.891964899987215,None,test,001,2022-06-22_11h04.58.267,MemoryStudy,2022.1.4,59.95469822707223,
Mem,5,downhillski.jpg,P,P,JPG\,downhillski,C:\\Users\\Psychology\\Documents\\ABExperiment\\MemoryStudy\\resources\\JPG\\downhillski.jpg,C:\\Users\\Psychology\\Documents\\ABExperiment\\MemoryStudy\\resources\\JPG\\,0,153,153,153,,,,,,,63.26415790000465,None,1,0.12344200001098216,63.26415790000465,None,63.26415790000465,None,test,001,2022-06-22_11h04.58.267,MemoryStudy,2022.1.4,59.95469822707223,
Mem,5,ear.jpg,P,P,JPG\,ear,C:\\Users\\Psychology\\Documents\\ABExperiment\\MemoryStudy\\resources\\JPG\\ear.jpg,C:\\Users\\Psychology\\Documents\\ABExperiment\\MemoryStudy\\resources\\JPG\\,0,154,154,154,,,,,,,63.4162965999858,None,1,0.2511808999988716,63.4162965999858,None,63.4162965999858,None,test,001,2022-06-22_11h04.58.267,MemoryStudy,2022.1.4,59.95469822707223,
Mem,5,eyepatch.jpg,P,P,JPG\,eyepatch,C:\\Users\\Psychology\\Documents\\ABExperiment\\MemoryStudy\\resources\\JPG\\eyepatch.jpg,C:\\Users\\Psychology\\Documents\\ABExperiment\\MemoryStudy\\resources\\JPG\\,0,155,155,155,,,,,,,63.70042710000416,None,1,0.23897669999860227,63.70042710000416,None,63.70042710000416,None,test,001,2022-06-22_11h04.58.267,MemoryStudy,2022.1.4,59.95469822707223,
Mem,5,funnel.jpg,P,P,JPG\,funnel,C:\\Users\\Psychology\\Documents\\ABExperiment\\MemoryStudy\\resources\\JPG\\funnel.jpg,C:\\Users\\Psychology\\Documents\\ABExperiment\\MemoryStudy\\resources\\JPG\\,0,156,156,156,,,,,,,63.96363169999677,None,1,0.2478193000133615,63.96363169999677,None,63.96363169999677,None,test,001,2022-06-22_11h04.58.267,MemoryStudy,2022.1.4,59.95469822707223,
Mem,5,hockeypuck.jpg,P,P,JPG\,hockeypuck,C:\\Users\\Psychology\\Documents\\ABExperiment\\MemoryStudy\\resources\\JPG\\hockeypuck.jpg,C:\\Users\\Psychology\\Documents\\ABExperiment\\MemoryStudy\\resources\\JPG\\,0,157,157,157,,,,,,,64.23416689998703,None,1,0.24841769997146912,64.23416689998703,None,64.23416689998703,None,test,001,2022-06-22_11h04.58.267,MemoryStudy,2022.1.4,59.95469822707223,
Mem,5,kiwi03.jpg,P,P,JPG\,kiwi03,C:\\Users\\Psychology\\Documents\\ABExperiment\\MemoryStudy\\resources\\JPG\\kiwi03.jpg,C:\\Users\\Psychology\\Documents\\ABExperiment\\MemoryStudy\\resources\\JPG\\,0,158,158,158,,,,,,,64.51790469998377,None,1,0.2378391000092961,64.51790469998377,None,64.51790469998377,None,test,001,2022-06-22_11h04.58.267,MemoryStudy,2022.1.4,59.95469822707223,
Mem,5,lollipop04.jpg,P,P,JPG\,lollipop04,C:\\Users\\Psychology\\Documents\\ABExperiment\\MemoryStudy\\resources\\JPG\\lollipop04.jpg,C:\\Users\\Psychology\\Documents\\ABExperiment\\MemoryStudy\\resources\\JPG\\,0,159,159,159,,,,,,,64.78407980001066,None,1,0.22676989997853525,64.78407980001066,None,64.78407980001066,None,test,001,2022-06-22_11h04.58.267,MemoryStudy,2022.1.4,59.95469822707223,
Mem,5,postalmailbox01.jpg,P,P,JPG\,postalmailbox01,C:\\Users\\Psychology\\Documents\\ABExperiment\\MemoryStudy\\resources\\JPG\\postalmailbox01.jpg,C:\\Users\\Psychology\\Documents\\ABExperiment\\MemoryStudy\\resources\\JPG\\,0,160,160,160,,,,,,,65.111235999997,None,1,0.18050079999375157,65.111235999997,None,65.111235999997,None,test,001,2022-06-22_11h04.58.267,MemoryStudy,2022.1.4,59.95469822707223,
Mem,5,parachute.jpg,P,P,JPG\,parachute,C:\\Users\\Psychology\\Documents\\ABExperiment\\MemoryStudy\\resources\\JPG\\parachute.jpg,C:\\Users\\Psychology\\Documents\\ABExperiment\\MemoryStudy\\resources\\JPG\\,0,161,161,161,,,,,,,65.3215610999905,None,1,0.25798749999376014,65.3215610999905,None,65.3215610999905,None,test,001,2022-06-22_11h04.58.267,MemoryStudy,2022.1.4,59.95469822707223,
Mem,5,rockbass.jpg,P,P,JPG\,rockbass,C:\\Users\\Psychology\\Documents\\ABExperiment\\MemoryStudy\\resources\\JPG\\rockbass.jpg,C:\\Users\\Psychology\\Documents\\ABExperiment\\MemoryStudy\\resources\\JPG\\,0,162,162,162,,,,,,,65.70736530001159,None,1,0.1355749000213109,65.70736530001159,None,65.70736530001159,None,test,001,2022-06-22_11h04.58.267,MemoryStudy,2022.1.4,59.95469822707223,
Mem,5,rollerblade.jpg,P,P,JPG\,rollerblade,C:\\Users\\Psychology\\Documents\\ABExperiment\\MemoryStudy\\resources\\JPG\\rollerblade.jpg,C:\\Users\\Psychology\\Documents\\ABExperiment\\MemoryStudy\\resources\\JPG\\,0,163,163,163,,,,,,,65.87042459999793,None,1,0.2685733000107575,65.87042459999793,None,65.87042459999793,None,test,001,2022-06-22_11h04.58.267,MemoryStudy,2022.1.4,59.95469822707223,
Mem,5,saxophone.jpg,P,P,JPG\,saxophone,C:\\Users\\Psychology\\Documents\\ABExperiment\\MemoryStudy\\resources\\JPG\\saxophone.jpg,C:\\Users\\Psychology\\Documents\\ABExperiment\\MemoryStudy\\resources\\JPG\\,0,164,164,164,,,,,,,66.16885009998805,None,1,0.2500581000058446,66.16885009998805,None,66.16885009998805,None,test,001,2022-06-22_11h04.58.267,MemoryStudy,2022.1.4,59.95469822707223,
Mem,5,scooter.jpg,P,P,JPG\,scooter,C:\\Users\\Psychology\\Documents\\ABExperiment\\MemoryStudy\\resources\\JPG\\scooter.jpg,C:\\Users\\Psychology\\Documents\\ABExperiment\\MemoryStudy\\resources\\JPG\\,0,165,165,165,,,,,,,66.45297909999499,None,1,0.2309151999943424,66.45297909999499,None,66.45297909999499,None,test,001,2022-06-22_11h04.58.267,MemoryStudy,2022.1.4,59.95469822707223,
Mem,5,stepladder.jpg,P,P,JPG\,stepladder,C:\\Users\\Psychology\\Documents\\ABExperiment\\MemoryStudy\\resources\\JPG\\stepladder.jpg,C:\\Users\\Psychology\\Documents\\ABExperiment\\MemoryStudy\\resources\\JPG\\,0,166,166,166,,,,,,,66.80247110000346,None,1,0.15262500001699664,66.80247110000346,None,66.80247110000346,None,test,001,2022-06-22_11h04.58.267,MemoryStudy,2022.1.4,59.95469822707223,
Mem,5,licenseplate.jpg,P,P,JPG\,licenseplate,C:\\Users\\Psychology\\Documents\\ABExperiment\\MemoryStudy\\resources\\JPG\\licenseplate.jpg,C:\\Users\\Psychology\\Documents\\ABExperiment\\MemoryStudy\\resources\\JPG\\,0,167,167,167,,,,,,,66.98581969999941,None,1,0.24913139999262057,66.98581969999941,None,66.98581969999941,None,test,001,2022-06-22_11h04.58.267,MemoryStudy,2022.1.4,59.95469822707223,
Mem,5,shower.jpg,P,P,JPG\,shower,C:\\Users\\Psychology\\Documents\\ABExperiment\\MemoryStudy\\resources\\JPG\\shower.jpg,C:\\Users\\Psychology\\Documents\\ABExperiment\\MemoryStudy\\resources\\JPG\\,0,168,168,168,,,,,,,67.26934329999494,None,1,0.23763859999598935,67.26934329999494,None,67.26934329999494,None,test,001,2022-06-22_11h04.58.267,MemoryStudy,2022.1.4,59.95469822707223,
Mem,5,stubbywrench01a.jpg,P,P,JPG\,stubbywrench01a,C:\\Users\\Psychology\\Documents\\ABExperiment\\MemoryStudy\\resources\\JPG\\stubbywrench01a.jpg,C:\\Users\\Psychology\\Documents\\ABExperiment\\MemoryStudy\\resources\\JPG\\,0,169,169,169,,,,,,,67.53635330000543,None,1,0.2504442000063136,67.53635330000543,None,67.53635330000543,None,test,001,2022-06-22_11h04.58.267,MemoryStudy,2022.1.4,59.95469822707223,
Mem,5,baseballbat.jpg,P,P,JPG\,baseballbat,C:\\Users\\Psychology\\Documents\\ABExperiment\\MemoryStudy\\resources\\JPG\\baseballbat.jpg,C:\\Users\\Psychology\\Documents\\ABExperiment\\MemoryStudy\\resources\\JPG\\,0,170,170,170,,,,,,,67.81989779998548,None,1,0.2630117000080645,67.81989779998548,None,67.81989779998548,None,test,001,2022-06-22_11h04.58.267,MemoryStudy,2022.1.4,59.95469822707223,
Mem,5,bed.jpg,P,P,JPG\,bed,C:\\Users\\Psychology\\Documents\\ABExperiment\\MemoryStudy\\resources\\JPG\\bed.jpg,C:\\Users\\Psychology\\Documents\\ABExperiment\\MemoryStudy\\resources\\JPG\\,0,171,171,171,,,,,,,68.10351139999693,None,1,0.25947699998505414,68.10351139999693,None,68.10351139999693,None,test,001,2022-06-22_11h04.58.267,MemoryStudy,2022.1.4,59.95469822707223,
Mem,5,foldingchair.jpg,P,P,JPG\,foldingchair,C:\\Users\\Psychology\\Documents\\ABExperiment\\MemoryStudy\\resources\\JPG\\foldingchair.jpg,C:\\Users\\Psychology\\Documents\\ABExperiment\\MemoryStudy\\resources\\JPG\\,0,172,172,172,,,,,,,68.38715970001067,None,1,0.25694839999778196,68.38715970001067,None,68.38715970001067,None,test,001,2022-06-22_11h04.58.267,MemoryStudy,2022.1.4,59.95469822707223,
Mem,5,butterfly.jpg,P,P,JPG\,butterfly,C:\\Users\\Psychology\\Documents\\ABExperiment\\MemoryStudy\\resources\\JPG\\butterfly.jpg,C:\\Users\\Psychology\\Documents\\ABExperiment\\MemoryStudy\\resources\\JPG\\,0,173,173,173,,,,,,,68.67082199998549,None,1,0.25208490001386963,68.67082199998549,None,68.67082199998549,None,test,001,2022-06-22_11h04.58.267,MemoryStudy,2022.1.4,59.95469822707223,
Mem,5,car.jpg,P,P,JPG\,car,C:\\Users\\Psychology\\Documents\\ABExperiment\\MemoryStudy\\resources\\JPG\\car.jpg,C:\\Users\\Psychology\\Documents\\ABExperiment\\MemoryStudy\\resources\\JPG\\,0,174,174,174,,,,,,,68.95435899999575,None,1,0.2656962999899406,68.95435899999575,None,68.95435899999575,None,test,001,2022-06-22_11h04.58.267,MemoryStudy,2022.1.4,59.95469822707223,
Mem,5,chefshat.jpg,P,P,JPG\,chefshat,C:\\Users\\Psychology\\Documents\\ABExperiment\\MemoryStudy\\resources\\JPG\\chefshat.jpg,C:\\Users\\Psychology\\Documents\\ABExperiment\\MemoryStudy\\resources\\JPG\\,0,175,175,175,,,,,,,69.25468919999548,None,1,0.2443867000110913,69.25468919999548,None,69.25468919999548,None,test,001,2022-06-22_11h04.58.267,MemoryStudy,2022.1.4,59.95469822707223,
Mem,5,church.jpg,P,P,JPG\,church,C:\\Users\\Psychology\\Documents\\ABExperiment\\MemoryStudy\\resources\\JPG\\church.jpg,C:\\Users\\Psychology\\Documents\\ABExperiment\\MemoryStudy\\resources\\JPG\\,0,176,176,176,,,,,,,69.52162250000401,None,1,0.2737108999863267,69.52162250000401,None,69.52162250000401,None,test,001,2022-06-22_11h04.58.267,MemoryStudy,2022.1.4,59.95469822707223,
Mem,5,duck01.jpg,P,P,JPG\,duck01,C:\\Users\\Psychology\\Documents\\ABExperiment\\MemoryStudy\\resources\\JPG\\duck01.jpg,C:\\Users\\Psychology\\Documents\\ABExperiment\\MemoryStudy\\resources\\JPG\\,0,177,177,177,,,,,,,69.82193299999926,None,1,0.2614041999913752,69.82193299999926,None,69.82193299999926,None,test,001,2022-06-22_11h04.58.267,MemoryStudy,2022.1.4,59.95469822707223,
Mem,5,hand01b.jpg,P,P,JPG\,hand01b,C:\\Users\\Psychology\\Documents\\ABExperiment\\MemoryStudy\\resources\\JPG\\hand01b.jpg,C:\\Users\\Psychology\\Documents\\ABExperiment\\MemoryStudy\\resources\\JPG\\,0,178,178,178,,,,,,,70.10550179998972,None,1,0.257113700004993,70.10550179998972,None,70.10550179998972,None,test,001,2022-06-22_11h04.58.267,MemoryStudy,2022.1.4,59.95469822707223,
Mem,5,hibiscusflower02.jpg,P,P,JPG\,hibiscusflower02,C:\\Users\\Psychology\\Documents\\ABExperiment\\MemoryStudy\\resources\\JPG\\hibiscusflower02.jpg,C:\\Users\\Psychology\\Documents\\ABExperiment\\MemoryStudy\\resources\\JPG\\,0,179,179,179,,,,,,,70.48333349998575,None,1,0.1752793999912683,70.48333349998575,None,70.48333349998575,None,test,001,2022-06-22_11h04.58.267,MemoryStudy,2022.1.4,59.95469822707223,
Mem,5,holdfast.jpg,P,P,JPG\,holdfast,C:\\Users\\Psychology\\Documents\\ABExperiment\\MemoryStudy\\resources\\JPG\\holdfast.jpg,C:\\Users\\Psychology\\Documents\\ABExperiment\\MemoryStudy\\resources\\JPG\\,0,180,180,180,,,,,,,70.689916000003,None,1,0.24927309999475256,70.689916000003,None,70.689916000003,None,test,001,2022-06-22_11h04.58.267,MemoryStudy,2022.1.4,59.95469822707223,
Mem,5,lily.jpg,P,P,JPG\,lily,C:\\Users\\Psychology\\Documents\\ABExperiment\\MemoryStudy\\resources\\JPG\\lily.jpg,C:\\Users\\Psychology\\Documents\\ABExperiment\\MemoryStudy\\resources\\JPG\\,0,181,181,181,,,,,,,70.97305189998588,None,1,0.2540756000089459,70.97305189998588,None,70.97305189998588,None,test,001,2022-06-22_11h04.58.267,MemoryStudy,2022.1.4,59.95469822707223,
Mem,5,makiroll.jpg,P,P,JPG\,makiroll,C:\\Users\\Psychology\\Documents\\ABExperiment\\MemoryStudy\\resources\\JPG\\makiroll.jpg,C:\\Users\\Psychology\\Documents\\ABExperiment\\MemoryStudy\\resources\\JPG\\,0,182,182,182,,,,,,,71.25670719999471,None,1,0.23425440001301467,71.25670719999471,None,71.25670719999471,None,test,001,2022-06-22_11h04.58.267,MemoryStudy,2022.1.4,59.95469822707223,
Mem,5,microwave.jpg,P,P,JPG\,microwave,C:\\Users\\Psychology\\Documents\\ABExperiment\\MemoryStudy\\resources\\JPG\\microwave.jpg,C:\\Users\\Psychology\\Documents\\ABExperiment\\MemoryStudy\\resources\\JPG\\,0,183,183,183,,,,,,,71.52360149999731,None,1,0.26330890000099316,71.52360149999731,None,71.52360149999731,None,test,001,2022-06-22_11h04.58.267,MemoryStudy,2022.1.4,59.95469822707223,
Mem,5,penguin.jpg,P,P,JPG\,penguin,C:\\Users\\Psychology\\Documents\\ABExperiment\\MemoryStudy\\resources\\JPG\\penguin.jpg,C:\\Users\\Psychology\\Documents\\ABExperiment\\MemoryStudy\\resources\\JPG\\,0,184,184,184,,,,,,,71.807158599986,None,1,0.24388520000502467,71.807158599986,None,71.807158599986,None,test,001,2022-06-22_11h04.58.267,MemoryStudy,2022.1.4,59.95469822707223,
Mem,5,smokingpipe.jpg,P,P,JPG\,smokingpipe,C:\\Users\\Psychology\\Documents\\ABExperiment\\MemoryStudy\\resources\\JPG\\smokingpipe.jpg,C:\\Users\\Psychology\\Documents\\ABExperiment\\MemoryStudy\\resources\\JPG\\,0,185,185,185,,,,,,,72.07412959999056,None,1,0.2569249999942258,72.07412959999056,None,72.07412959999056,None,test,001,2022-06-22_11h04.58.267,MemoryStudy,2022.1.4,59.95469822707223,
Mem,5,shovel01.jpg,P,P,JPG\,shovel01,C:\\Users\\Psychology\\Documents\\ABExperiment\\MemoryStudy\\resources\\JPG\\shovel01.jpg,C:\\Users\\Psychology\\Documents\\ABExperiment\\MemoryStudy\\resources\\JPG\\,0,186,186,186,,,,,,,72.3577890000015,None,1,0.2853025999793317,72.3577890000015,None,72.3577890000015,None,test,001,2022-06-22_11h04.58.267,MemoryStudy,2022.1.4,59.95469822707223,
Mem,5,spicerack.jpg,P,P,JPG\,spicerack,C:\\Users\\Psychology\\Documents\\ABExperiment\\MemoryStudy\\resources\\JPG\\spicerack.jpg,C:\\Users\\Psychology\\Documents\\ABExperiment\\MemoryStudy\\resources\\JPG\\,0,187,187,187,,,,,,,72.67478810000466,None,1,0.24074760000803508,72.67478810000466,None,72.67478810000466,None,test,001,2022-06-22_11h04.58.267,MemoryStudy,2022.1.4,59.95469822707223,
Mem,5,athleticsock.jpg,P,P,JPG\,athleticsock,C:\\Users\\Psychology\\Documents\\ABExperiment\\MemoryStudy\\resources\\JPG\\athleticsock.jpg,C:\\Users\\Psychology\\Documents\\ABExperiment\\MemoryStudy\\resources\\JPG\\,0,188,188,188,,,,,,,72.93987559998641,None,1,0.27118460001656786,72.93987559998641,None,72.93987559998641,None,test,001,2022-06-22_11h04.58.267,MemoryStudy,2022.1.4,59.95469822707223,
Mem,5,surfboard.jpg,P,P,JPG\,surfboard,C:\\Users\\Psychology\\Documents\\ABExperiment\\MemoryStudy\\resources\\JPG\\surfboard.jpg,C:\\Users\\Psychology\\Documents\\ABExperiment\\MemoryStudy\\resources\\JPG\\,0,189,189,189,,,,,,,73.24283529998502,None,1,0.26404149999143556,73.24283529998502,None,73.24283529998502,None,test,001,2022-06-22_11h04.58.267,MemoryStudy,2022.1.4,59.95469822707223,
Mem,5,sword01.jpg,P,P,JPG\,sword01,C:\\Users\\Psychology\\Documents\\ABExperiment\\MemoryStudy\\resources\\JPG\\sword01.jpg,C:\\Users\\Psychology\\Documents\\ABExperiment\\MemoryStudy\\resources\\JPG\\,0,190,190,190,,,,,,,73.54249920000439,None,1,0.23644869998679496,73.54249920000439,None,73.54249920000439,None,test,001,2022-06-22_11h04.58.267,MemoryStudy,2022.1.4,59.95469822707223,
Mem,5,table01.jpg,P,P,JPG\,table01,C:\\Users\\Psychology\\Documents\\ABExperiment\\MemoryStudy\\resources\\JPG\\table01.jpg,C:\\Users\\Psychology\\Documents\\ABExperiment\\MemoryStudy\\resources\\JPG\\,0,191,191,191,,,,,,,73.81055840000045,None,1,0.24834329998702742,73.81055840000045,None,73.81055840000045,None,test,001,2022-06-22_11h04.58.267,MemoryStudy,2022.1.4,59.95469822707223,
Mem,5,trumpet.jpg,P,P,JPG\,trumpet,C:\\Users\\Psychology\\Documents\\ABExperiment\\MemoryStudy\\resources\\JPG\\trumpet.jpg,C:\\Users\\Psychology\\Documents\\ABExperiment\\MemoryStudy\\resources\\JPG\\,0,192,192,192,,,,,,,74.09267620000173,None,1,0.23037949998979457,74.09267620000173,None,74.09267620000173,None,test,001,2022-06-22_11h04.58.267,MemoryStudy,2022.1.4,59.95469822707223,
Mem,5,marble.jpg,P,P,JPG\,marble,C:\\Users\\Psychology\\Documents\\ABExperiment\\MemoryStudy\\resources\\JPG\\marble.jpg,C:\\Users\\Psychology\\Documents\\ABExperiment\\MemoryStudy\\resources\\JPG\\,0,193,193,193,,,,,,,74.34332789998734,None,1,0.25972770000225864,74.34332789998734,None,74.34332789998734,None,test,001,2022-06-22_11h04.58.267,MemoryStudy,2022.1.4,59.95469822707223,
Mem,5,callbell.jpg,P,P,JPG\,callbell,C:\\Users\\Psychology\\Documents\\ABExperiment\\MemoryStudy\\resources\\JPG\\callbell.jpg,C:\\Users\\Psychology\\Documents\\ABExperiment\\MemoryStudy\\resources\\JPG\\,0,194,194,194,,,,,,,74.62684979999904,None,1,0.23257100000046194,74.62684979999904,None,74.62684979999904,None,test,001,2022-06-22_11h04.58.267,MemoryStudy,2022.1.4,59.95469822707223,
Mem,5,footballhelmet.jpg,P,P,JPG\,footballhelmet,C:\\Users\\Psychology\\Documents\\ABExperiment\\MemoryStudy\\resources\\JPG\\footballhelmet.jpg,C:\\Users\\Psychology\\Documents\\ABExperiment\\MemoryStudy\\resources\\JPG\\,0,195,195,195,,,,,,,74.89338259998476,None,1,0.23026480001863092,74.89338259998476,None,74.89338259998476,None,test,001,2022-06-22_11h04.58.267,MemoryStudy,2022.1.4,59.95469822707223,
Mem,5,honeybee.jpg,P,P,JPG\,honeybee,C:\\Users\\Psychology\\Documents\\ABExperiment\\MemoryStudy\\resources\\JPG\\honeybee.jpg,C:\\Users\\Psychology\\Documents\\ABExperiment\\MemoryStudy\\resources\\JPG\\,0,196,196,196,,,,,,,75.14402509998763,None,1,0.24279839999508113,75.14402509998763,None,75.14402509998763,None,test,001,2022-06-22_11h04.58.267,MemoryStudy,2022.1.4,59.95469822707223,
Mem,5,ipad02.jpg,P,P,JPG\,ipad02,C:\\Users\\Psychology\\Documents\\ABExperiment\\MemoryStudy\\resources\\JPG\\ipad02.jpg,C:\\Users\\Psychology\\Documents\\ABExperiment\\MemoryStudy\\resources\\JPG\\,0,197,197,197,,,,,,,75.41088919999311,None,1,0.22397709998767823,75.41088919999311,None,75.41088919999311,None,test,001,2022-06-22_11h04.58.267,MemoryStudy,2022.1.4,59.95469822707223,
Mem,5,pigeon.jpg,P,P,JPG\,pigeon,C:\\Users\\Psychology\\Documents\\ABExperiment\\MemoryStudy\\resources\\JPG\\pigeon.jpg,C:\\Users\\Psychology\\Documents\\ABExperiment\\MemoryStudy\\resources\\JPG\\,0,198,198,198,,,,,,,75.66122730000643,None,1,0.22980489998008125,75.66122730000643,None,75.66122730000643,None,test,001,2022-06-22_11h04.58.267,MemoryStudy,2022.1.4,59.95469822707223,
Mem,5,pingpongtable.jpg,P,P,JPG\,pingpongtable,C:\\Users\\Psychology\\Documents\\ABExperiment\\MemoryStudy\\resources\\JPG\\pingpongtable.jpg,C:\\Users\\Psychology\\Documents\\ABExperiment\\MemoryStudy\\resources\\JPG\\,0,199,199,199,,,,,,,75.91136999998707,None,1,0.21982749999733642,75.91136999998707,None,75.91136999998707,None,test,001,2022-06-22_11h04.58.267,MemoryStudy,2022.1.4,59.95469822707223,
Mem,5,flamingo.jpg,P,P,JPG\,flamingo,C:\\Users\\Psychology\\Documents\\ABExperiment\\MemoryStudy\\resources\\JPG\\flamingo.jpg,C:\\Users\\Psychology\\Documents\\ABExperiment\\MemoryStudy\\resources\\JPG\\,0,200,200,200,,,,,,,76.16145340001094,None,1,0.23355080001056194,76.16145340001094,None,76.16145340001094,None,test,001,2022-06-22_11h04.58.267,MemoryStudy,2022.1.4,59.95469822707223,
Mem,5,pokerchips.jpg,P,P,JPG\,pokerchips,C:\\Users\\Psychology\\Documents\\ABExperiment\\MemoryStudy\\resources\\JPG\\pokerchips.jpg,C:\\Users\\Psychology\\Documents\\ABExperiment\\MemoryStudy\\resources\\JPG\\,0,201,201,201,,,,,,,76.42787059998955,None,1,0.2072718999988865,76.42787059998955,None,76.42787059998955,None,test,001,2022-06-22_11h04.58.267,MemoryStudy,2022.1.4,59.95469822707223,
Mem,5,popcorn.jpg,P,P,JPG\,popcorn,C:\\Users\\Psychology\\Documents\\ABExperiment\\MemoryStudy\\resources\\JPG\\popcorn.jpg,C:\\Users\\Psychology\\Documents\\ABExperiment\\MemoryStudy\\resources\\JPG\\,0,202,202,202,,,,,,,76.66194920000271,None,1,0.20516700000735,76.66194920000271,None,76.66194920000271,None,test,001,2022-06-22_11h04.58.267,MemoryStudy,2022.1.4,59.95469822707223,
Mem,5,punchingbag.jpg,P,P,JPG\,punchingbag,C:\\Users\\Psychology\\Documents\\ABExperiment\\MemoryStudy\\resources\\JPG\\punchingbag.jpg,C:\\Users\\Psychology\\Documents\\ABExperiment\\MemoryStudy\\resources\\JPG\\,0,203,203,203,,,,,,,76.89559510000981,None,1,0.2114319000102114,76.89559510000981,None,76.89559510000981,None,test,001,2022-06-22_11h04.58.267,MemoryStudy,2022.1.4,59.95469822707223,
Mem,5,recyclingbin.jpg,P,P,JPG\,recyclingbin,C:\\Users\\Psychology\\Documents\\ABExperiment\\MemoryStudy\\resources\\JPG\\recyclingbin.jpg,C:\\Users\\Psychology\\Documents\\ABExperiment\\MemoryStudy\\resources\\JPG\\,0,204,204,204,,,,,,,77.12952449999284,None,1,0.20944129998679273,77.12952449999284,None,77.12952449999284,None,test,001,2022-06-22_11h04.58.267,MemoryStudy,2022.1.4,59.95469822707223,
Mem,5,rose.jpg,P,P,JPG\,rose,C:\\Users\\Psychology\\Documents\\ABExperiment\\MemoryStudy\\resources\\JPG\\rose.jpg,C:\\Users\\Psychology\\Documents\\ABExperiment\\MemoryStudy\\resources\\JPG\\,0,205,205,205,,,,,,,77.36294399999315,None,1,0.2082331999845337,77.36294399999315,None,77.36294399999315,None,test,001,2022-06-22_11h04.58.267,MemoryStudy,2022.1.4,59.95469822707223,
Mem,5,safe.jpg,P,P,JPG\,safe,C:\\Users\\Psychology\\Documents\\ABExperiment\\MemoryStudy\\resources\\JPG\\safe.jpg,C:\\Users\\Psychology\\Documents\\ABExperiment\\MemoryStudy\\resources\\JPG\\,0,206,206,206,,,,,,,77.60487340000691,None,1,0.21405159999267198,77.60487340000691,None,77.60487340000691,None,test,001,2022-06-22_11h04.58.267,MemoryStudy,2022.1.4,59.95469822707223,
Mem,99,pencil01.jpg,Z,Z,JPG\,pencil01,C:\\Users\\Psychology\\Documents\\ABExperiment\\MemoryStudy\\resources\\JPG\\pencil01.jpg,C:\\Users\\Psychology\\Documents\\ABExperiment\\MemoryStudy\\resources\\JPG\\,0,207,207,207,,,,,,,77.94018700000015,None,1,0.08679469997878186,77.94018700000015,None,77.94018700000015,None,test,001,2022-06-22_11h04.58.267,MemoryStudy,2022.1.4,59.95469822707223,
Mem,99,foosballtable.jpg,Z,Z,JPG\,foosballtable,C:\\Users\\Psychology\\Documents\\ABExperiment\\MemoryStudy\\resources\\JPG\\foosballtable.jpg,C:\\Users\\Psychology\\Documents\\ABExperiment\\MemoryStudy\\resources\\JPG\\,0,208,208,208,,,,,,,78.04936440000893,None,1,0.23352100001648068,78.04936440000893,None,78.04936440000893,None,test,001,2022-06-22_11h04.58.267,MemoryStudy,2022.1.4,59.95469822707223,
Mem,99,banana01.jpg,Z,Z,JPG\,banana01,C:\\Users\\Psychology\\Documents\\ABExperiment\\MemoryStudy\\resources\\JPG\\banana01.jpg,C:\\Users\\Psychology\\Documents\\ABExperiment\\MemoryStudy\\resources\\JPG\\,0,209,209,209,,,,,,,78.4171103000117,None,1,0.08974009999656118,78.4171103000117,None,78.4171103000117,None,test,001,2022-06-22_11h04.58.267,MemoryStudy,2022.1.4,59.95469822707223,
Mem,99,lipstick02a.jpg,Z,Z,JPG\,lipstick02a,C:\\Users\\Psychology\\Documents\\ABExperiment\\MemoryStudy\\resources\\JPG\\lipstick02a.jpg,C:\\Users\\Psychology\\Documents\\ABExperiment\\MemoryStudy\\resources\\JPG\\,0,210,210,210,,,,,,,78.59962379999342,None,1,0.16309000001638196,78.59962379999342,None,78.59962379999342,None,test,001,2022-06-22_11h04.58.267,MemoryStudy,2022.1.4,59.95469822707223,
Mem,99,toaster01.jpg,Z,Z,JPG\,toaster01,C:\\Users\\Psychology\\Documents\\ABExperiment\\MemoryStudy\\resources\\JPG\\toaster01.jpg,C:\\Users\\Psychology\\Documents\\ABExperiment\\MemoryStudy\\resources\\JPG\\,0,211,211,211,,,,,,,78.87587910000002,None,1,0.12044320002314635,78.87587910000002,None,78.87587910000002,None,test,001,2022-06-22_11h04.58.267,MemoryStudy,2022.1.4,59.95469822707223,
Mem,99,grape01.jpg,Z,Z,JPG\,grape01,C:\\Users\\Psychology\\Documents\\ABExperiment\\MemoryStudy\\resources\\JPG\\grape01.jpg,C:\\Users\\Psychology\\Documents\\ABExperiment\\MemoryStudy\\resources\\JPG\\,0,212,212,212,,,,,,,79.11431599999196,None,1,0.14493409998249263,79.11431599999196,None,79.11431599999196,None,test,001,2022-06-22_11h04.58.267,MemoryStudy,2022.1.4,59.95469822707223,
Mem,99,key01.jpg,Z,Z,JPG\,key01,C:\\Users\\Psychology\\Documents\\ABExperiment\\MemoryStudy\\resources\\JPG\\key01.jpg,C:\\Users\\Psychology\\Documents\\ABExperiment\\MemoryStudy\\resources\\JPG\\,0,213,213,213,,,,,,,79.36395830000401,None,1,0.1506492999906186,79.36395830000401,None,79.36395830000401,None,test,001,2022-06-22_11h04.58.267,MemoryStudy,2022.1.4,59.95469822707223,
Mem,99,cellphone.jpg,Z,Z,JPG\,cellphone,C:\\Users\\Psychology\\Documents\\ABExperiment\\MemoryStudy\\resources\\JPG\\cellphone.jpg,C:\\Users\\Psychology\\Documents\\ABExperiment\\MemoryStudy\\resources\\JPG\\,0,214,214,214,,,,,,,79.63625919999322,None,1,0.12671439998666756,79.63625919999322,None,79.63625919999322,None,test,001,2022-06-22_11h04.58.267,MemoryStudy,2022.1.4,59.95469822707223,
Mem,99,screwdriver04b.jpg,Z,Z,JPG\,screwdriver04b,C:\\Users\\Psychology\\Documents\\ABExperiment\\MemoryStudy\\resources\\JPG\\screwdriver04b.jpg,C:\\Users\\Psychology\\Documents\\ABExperiment\\MemoryStudy\\resources\\JPG\\,0,215,215,215,,,,,,,79.87518629999249,None,1,0.14380359998904169,79.87518629999249,None,79.87518629999249,None,test,001,2022-06-22_11h04.58.267,MemoryStudy,2022.1.4,59.95469822707223,
Mem,99,pineapple01a.jpg,Z,Z,JPG\,pineapple01a,C:\\Users\\Psychology\\Documents\\ABExperiment\\MemoryStudy\\resources\\JPG\\pineapple01a.jpg,C:\\Users\\Psychology\\Documents\\ABExperiment\\MemoryStudy\\resources\\JPG\\,0,216,216,216,,,,,,,80.13288190000458,None,1,0.1584426000190433,80.13288190000458,None,80.13288190000458,None,test,001,2022-06-22_11h04.58.267,MemoryStudy,2022.1.4,59.95469822707223,
Mem,99,strawberry.jpg,Z,Z,JPG\,strawberry,C:\\Users\\Psychology\\Documents\\ABExperiment\\MemoryStudy\\resources\\JPG\\strawberry.jpg,C:\\Users\\Psychology\\Documents\\ABExperiment\\MemoryStudy\\resources\\JPG\\,0,217,217,217,,,,,,,80.3884517000115,None,1,0.15853259997675195,80.3884517000115,None,80.3884517000115,None,test,001,2022-06-22_11h04.58.267,MemoryStudy,2022.1.4,59.95469822707223,
Mem,99,teabag.jpg,Z,Z,JPG\,teabag,C:\\Users\\Psychology\\Documents\\ABExperiment\\MemoryStudy\\resources\\JPG\\teabag.jpg,C:\\Users\\Psychology\\Documents\\ABExperiment\\MemoryStudy\\resources\\JPG\\,0,218,218,218,,,,,,,80.67050430001109,None,1,0.10871590001625009,80.67050430001109,None,80.67050430001109,None,test,001,2022-06-22_11h04.58.267,MemoryStudy,2022.1.4,59.95469822707223,
Mem,99,dandelion.jpg,Z,Z,JPG\,dandelion,C:\\Users\\Psychology\\Documents\\ABExperiment\\MemoryStudy\\resources\\JPG\\dandelion.jpg,C:\\Users\\Psychology\\Documents\\ABExperiment\\MemoryStudy\\resources\\JPG\\,0,219,219,219,,,,,,,80.80232079999405,None,1,0.22413369998685084,80.80232079999405,None,80.80232079999405,None,test,001,2022-06-22_11h04.58.267,MemoryStudy,2022.1.4,59.95469822707223,
Mem,99,paintbrush01.jpg,Z,Z,JPG\,paintbrush01,C:\\Users\\Psychology\\Documents\\ABExperiment\\MemoryStudy\\resources\\JPG\\paintbrush01.jpg,C:\\Users\\Psychology\\Documents\\ABExperiment\\MemoryStudy\\resources\\JPG\\,0,220,220,220,,,,,,,81.11514829998487,None,1,0.1519640000187792,81.11514829998487,None,81.11514829998487,None,test,001,2022-06-22_11h04.58.267,MemoryStudy,2022.1.4,59.95469822707223,
Mem,99,celery.jpg,Z,Z,JPG\,celery,C:\\Users\\Psychology\\Documents\\ABExperiment\\MemoryStudy\\resources\\JPG\\celery.jpg,C:\\Users\\Psychology\\Documents\\ABExperiment\\MemoryStudy\\resources\\JPG\\,0,221,221,221,,,,,,,81.3883869999845,None,1,0.1348831999930553,81.3883869999845,None,81.3883869999845,None,test,001,2022-06-22_11h04.58.267,MemoryStudy,2022.1.4,59.95469822707223,
Mem,99,eraser.jpg,Z,Z,JPG\,eraser,C:\\Users\\Psychology\\Documents\\ABExperiment\\MemoryStudy\\resources\\JPG\\eraser.jpg,C:\\Users\\Psychology\\Documents\\ABExperiment\\MemoryStudy\\resources\\JPG\\,0,222,222,222,,,,,,,81.65640479998547,None,1,0.11426449997816235,81.65640479998547,None,81.65640479998547,None,test,001,2022-06-22_11h04.58.267,MemoryStudy,2022.1.4,59.95469822707223,
Mem,99,medal02b.jpg,Z,Z,JPG\,medal02b,C:\\Users\\Psychology\\Documents\\ABExperiment\\MemoryStudy\\resources\\JPG\\medal02b.jpg,C:\\Users\\Psychology\\Documents\\ABExperiment\\MemoryStudy\\resources\\JPG\\,0,223,223,223,,,,,,,81.90331080000033,None,1,0.12361369997961447,81.90331080000033,None,81.90331080000033,None,test,001,2022-06-22_11h04.58.267,MemoryStudy,2022.1.4,59.95469822707223,
Mem,99,hammer01.jpg,Z,Z,JPG\,hammer01,C:\\Users\\Psychology\\Documents\\ABExperiment\\MemoryStudy\\resources\\JPG\\hammer01.jpg,C:\\Users\\Psychology\\Documents\\ABExperiment\\MemoryStudy\\resources\\JPG\\,0,224,224,224,,,,,,,82.14201169999433,None,1,0.2932093999988865,82.14201169999433,None,82.14201169999433,None,test,001,2022-06-22_11h04.58.267,MemoryStudy,2022.1.4,59.95469822707223,
Mem,99,speaker04.jpg,Z,Z,JPG\,speaker04,C:\\Users\\Psychology\\Documents\\ABExperiment\\MemoryStudy\\resources\\JPG\\speaker04.jpg,C:\\Users\\Psychology\\Documents\\ABExperiment\\MemoryStudy\\resources\\JPG\\,0,225,225,225,,,,,,,82.56771649999428,None,1,0.17884969999431632,82.56771649999428,None,82.56771649999428,None,test,001,2022-06-22_11h04.58.267,MemoryStudy,2022.1.4,59.95469822707223,
Mem,99,mushroom01.jpg,Z,Z,JPG\,mushroom01,C:\\Users\\Psychology\\Documents\\ABExperiment\\MemoryStudy\\resources\\JPG\\mushroom01.jpg,C:\\Users\\Psychology\\Documents\\ABExperiment\\MemoryStudy\\resources\\JPG\\,0,226,226,226,,,,,,,82.85136259999126,None,1,0.1912849000073038,82.85136259999126,None,82.85136259999126,None,test,001,2022-06-22_11h04.58.267,MemoryStudy,2022.1.4,59.95469822707223,
Mem,99,pear01.jpg,Z,Z,JPG\,pear01,C:\\Users\\Psychology\\Documents\\ABExperiment\\MemoryStudy\\resources\\JPG\\pear01.jpg,C:\\Users\\Psychology\\Documents\\ABExperiment\\MemoryStudy\\resources\\JPG\\,0,227,227,227,,,,,,,83.1546565000026,None,1,0.1608360999962315,83.1546565000026,None,83.1546565000026,None,test,001,2022-06-22_11h04.58.267,MemoryStudy,2022.1.4,59.95469822707223,
Mem,99,comb02a.jpg,Z,Z,JPG\,comb02a,C:\\Users\\Psychology\\Documents\\ABExperiment\\MemoryStudy\\resources\\JPG\\comb02a.jpg,C:\\Users\\Psychology\\Documents\\ABExperiment\\MemoryStudy\\resources\\JPG\\,0,228,228,228,,,,,,,83.41860790000646,None,1,0.18449419998796657,83.41860790000646,None,83.41860790000646,None,test,001,2022-06-22_11h04.58.267,MemoryStudy,2022.1.4,59.95469822707223,
Mem,99,plate01b.jpg,Z,Z,JPG\,plate01b,C:\\Users\\Psychology\\Documents\\ABExperiment\\MemoryStudy\\resources\\JPG\\plate01b.jpg,C:\\Users\\Psychology\\Documents\\ABExperiment\\MemoryStudy\\resources\\JPG\\,0,229,229,229,,,,,,,83.71612480000476,None,1,0.16743770000175573,83.71612480000476,None,83.71612480000476,None,test,001,2022-06-22_11h04.58.267,MemoryStudy,2022.1.4,59.95469822707223,
Mem,99,clock01a.jpg,Z,Z,JPG\,clock01a,C:\\Users\\Psychology\\Documents\\ABExperiment\\MemoryStudy\\resources\\JPG\\clock01a.jpg,C:\\Users\\Psychology\\Documents\\ABExperiment\\MemoryStudy\\resources\\JPG\\,0,230,230,230,,,,,,,84.01617059999262,None,1,0.10643569999956526,84.01617059999262,None,84.01617059999262,None,test,001,2022-06-22_11h04.58.267,MemoryStudy,2022.1.4,59.95469822707223,
Mem,99,button01.jpg,Z,Z,JPG\,button01,C:\\Users\\Psychology\\Documents\\ABExperiment\\MemoryStudy\\resources\\JPG\\button01.jpg,C:\\Users\\Psychology\\Documents\\ABExperiment\\MemoryStudy\\resources\\JPG\\,0,231,231,231,,,,,,,84.241543799988,None,1,0.16235639998922125,84.241543799988,None,84.241543799988,None,test,001,2022-06-22_11h04.58.267,MemoryStudy,2022.1.4,59.95469822707223,
Mem,99,globe.jpg,Z,Z,JPG\,globe,C:\\Users\\Psychology\\Documents\\ABExperiment\\MemoryStudy\\resources\\JPG\\globe.jpg,C:\\Users\\Psychology\\Documents\\ABExperiment\\MemoryStudy\\resources\\JPG\\,0,232,232,232,,,,,,,84.54826250000042,None,1,0.11077679999289103,84.54826250000042,None,84.54826250000042,None,test,001,2022-06-22_11h04.58.267,MemoryStudy,2022.1.4,59.95469822707223,
Mem,99,sewingmachine01a.jpg,Z,Z,JPG\,sewingmachine01a,C:\\Users\\Psychology\\Documents\\ABExperiment\\MemoryStudy\\resources\\JPG\\sewingmachine01a.jpg,C:\\Users\\Psychology\\Documents\\ABExperiment\\MemoryStudy\\resources\\JPG\\,0,233,233,233,,,,,,,84.78911370001151,None,1,0.09442700000363402,84.78911370001151,None,84.78911370001151,None,test,001,2022-06-22_11h04.58.267,MemoryStudy,2022.1.4,59.95469822707223,
Mem,99,scarf.jpg,Z,Z,JPG\,scarf,C:\\Users\\Psychology\\Documents\\ABExperiment\\MemoryStudy\\resources\\JPG\\scarf.jpg,C:\\Users\\Psychology\\Documents\\ABExperiment\\MemoryStudy\\resources\\JPG\\,0,234,234,234,,,,,,,84.99165029998403,None,1,0.14736960001755506,84.99165029998403,None,84.99165029998403,None,test,001,2022-06-22_11h04.58.267,MemoryStudy,2022.1.4,59.95469822707223,
Mem,99,carrot01.jpg,Z,Z,JPG\,carrot01,C:\\Users\\Psychology\\Documents\\ABExperiment\\MemoryStudy\\resources\\JPG\\carrot01.jpg,C:\\Users\\Psychology\\Documents\\ABExperiment\\MemoryStudy\\resources\\JPG\\,0,235,235,235,,,,,,,85.2631495000096,None,1,0.1492189000127837,85.2631495000096,None,85.2631495000096,None,test,001,2022-06-22_11h04.58.267,MemoryStudy,2022.1.4,59.95469822707223,
Mem,99,book01b.jpg,Z,Z,JPG\,book01b,C:\\Users\\Psychology\\Documents\\ABExperiment\\MemoryStudy\\resources\\JPG\\book01b.jpg,C:\\Users\\Psychology\\Documents\\ABExperiment\\MemoryStudy\\resources\\JPG\\,0,236,236,236,,,,,,,85.52909500000533,None,1,0.14587439998285845,85.52909500000533,None,85.52909500000533,None,test,001,2022-06-22_11h04.58.267,MemoryStudy,2022.1.4,59.95469822707223,
Mem,99,tennisball01b.jpg,Z,Z,JPG\,tennisball01b,C:\\Users\\Psychology\\Documents\\ABExperiment\\MemoryStudy\\resources\\JPG\\tennisball01b.jpg,C:\\Users\\Psychology\\Documents\\ABExperiment\\MemoryStudy\\resources\\JPG\\,0,237,237,237,,,,,,,85.80878819999634,None,1,0.1705489000014495,85.80878819999634,None,85.80878819999634,None,test,001,2022-06-22_11h04.58.267,MemoryStudy,2022.1.4,59.95469822707223,
Mem,99,handcuffs.jpg,Z,Z,JPG\,handcuffs,C:\\Users\\Psychology\\Documents\\ABExperiment\\MemoryStudy\\resources\\JPG\\handcuffs.jpg,C:\\Users\\Psychology\\Documents\\ABExperiment\\MemoryStudy\\resources\\JPG\\,0,238,238,238,,,,,,,86.00472140000784,None,1,0.2218533999985084,86.00472140000784,None,86.00472140000784,None,test,001,2022-06-22_11h04.58.267,MemoryStudy,2022.1.4,59.95469822707223,
Mem,99,feather03a.jpg,Z,Z,JPG\,feather03a,C:\\Users\\Psychology\\Documents\\ABExperiment\\MemoryStudy\\resources\\JPG\\feather03a.jpg,C:\\Users\\Psychology\\Documents\\ABExperiment\\MemoryStudy\\resources\\JPG\\,0,239,239,239,,,,,,,86.33352079999167,None,1,0.14176619998761453,86.33352079999167,None,86.33352079999167,None,test,001,2022-06-22_11h04.58.267,MemoryStudy,2022.1.4,59.95469822707223,
Mem,99,sock01a.jpg,Z,Z,JPG\,sock01a,C:\\Users\\Psychology\\Documents\\ABExperiment\\MemoryStudy\\resources\\JPG\\sock01a.jpg,C:\\Users\\Psychology\\Documents\\ABExperiment\\MemoryStudy\\resources\\JPG\\,0,240,240,240,,,,,,,86.59940489998553,None,1,0.14849300001515076,86.59940489998553,None,86.59940489998553,None,test,001,2022-06-22_11h04.58.267,MemoryStudy,2022.1.4,59.95469822707223,
Mem,99,printer02.jpg,Z,Z,JPG\,printer02,C:\\Users\\Psychology\\Documents\\ABExperiment\\MemoryStudy\\resources\\JPG\\printer02.jpg,C:\\Users\\Psychology\\Documents\\ABExperiment\\MemoryStudy\\resources\\JPG\\,0,241,241,241,,,,,,,86.86671890001162,None,1,0.15201119999983348,86.86671890001162,None,86.86671890001162,None,test,001,2022-06-22_11h04.58.267,MemoryStudy,2022.1.4,59.95469822707223,
Mem,99,garlic01a.jpg,Z,Z,JPG\,garlic01a,C:\\Users\\Psychology\\Documents\\ABExperiment\\MemoryStudy\\resources\\JPG\\garlic01a.jpg,C:\\Users\\Psychology\\Documents\\ABExperiment\\MemoryStudy\\resources\\JPG\\,0,242,242,242,,,,,,,87.1604537999956,None,1,0.12280919999466278,87.1604537999956,None,87.1604537999956,None,test,001,2022-06-22_11h04.58.267,MemoryStudy,2022.1.4,59.95469822707223,
Mem,99,watermelon01.jpg,Z,Z,JPG\,watermelon01,C:\\Users\\Psychology\\Documents\\ABExperiment\\MemoryStudy\\resources\\JPG\\watermelon01.jpg,C:\\Users\\Psychology\\Documents\\ABExperiment\\MemoryStudy\\resources\\JPG\\,0,243,243,243,,,,,,,87.40490960000898,None,1,0.14169449999462813,87.40490960000898,None,87.40490960000898,None,test,001,2022-06-22_11h04.58.267,MemoryStudy,2022.1.4,59.95469822707223,
Mem,99,stapler03a.jpg,Z,Z,JPG\,stapler03a,C:\\Users\\Psychology\\Documents\\ABExperiment\\MemoryStudy\\resources\\JPG\\stapler03a.jpg,C:\\Users\\Psychology\\Documents\\ABExperiment\\MemoryStudy\\resources\\JPG\\,0,244,244,244,,,,,,,87.63551059999736,None,1,0.16806379999616183,87.63551059999736,None,87.63551059999736,None,test,001,2022-06-22_11h04.58.267,MemoryStudy,2022.1.4,59.95469822707223,
Mem,99,microscope.jpg,Z,Z,JPG\,microscope,C:\\Users\\Psychology\\Documents\\ABExperiment\\MemoryStudy\\resources\\JPG\\microscope.jpg,C:\\Users\\Psychology\\Documents\\ABExperiment\\MemoryStudy\\resources\\JPG\\,0,245,245,245,,,,,,,87.91685099998722,None,1,0.14985499999602325,87.91685099998722,None,87.91685099998722,None,test,001,2022-06-22_11h04.58.267,MemoryStudy,2022.1.4,59.95469822707223,
Mem,99,blueberry01.jpg,Z,Z,JPG\,blueberry01,C:\\Users\\Psychology\\Documents\\ABExperiment\\MemoryStudy\\resources\\JPG\\blueberry01.jpg,C:\\Users\\Psychology\\Documents\\ABExperiment\\MemoryStudy\\resources\\JPG\\,0,246,246,246,,,,,,,88.17503409998608,None,1,0.15639409999130294,88.17503409998608,None,88.17503409998608,None,test,001,2022-06-22_11h04.58.267,MemoryStudy,2022.1.4,59.95469822707223,
Mem,99,computerkeyboard02.jpg,Z,Z,JPG\,computerkeyboard02,C:\\Users\\Psychology\\Documents\\ABExperiment\\MemoryStudy\\resources\\JPG\\computerkeyboard02.jpg,C:\\Users\\Psychology\\Documents\\ABExperiment\\MemoryStudy\\resources\\JPG\\,0,247,247,247,,,,,,,88.41837050000322,None,1,0.14487889999873005,88.41837050000322,None,88.41837050000322,None,test,001,2022-06-22_11h04.58.267,MemoryStudy,2022.1.4,59.95469822707223,
Mem,99,lamp04a.jpg,Z,Z,JPG\,lamp04a,C:\\Users\\Psychology\\Documents\\ABExperiment\\MemoryStudy\\resources\\JPG\\lamp04a.jpg,C:\\Users\\Psychology\\Documents\\ABExperiment\\MemoryStudy\\resources\\JPG\\,0,248,248,248,,,,,,,88.67737879999913,None,1,0.13399780000327155,88.67737879999913,None,88.67737879999913,None,test,001,2022-06-22_11h04.58.267,MemoryStudy,2022.1.4,59.95469822707223,
Mem,99,match.jpg,Z,Z,JPG\,match,C:\\Users\\Psychology\\Documents\\ABExperiment\\MemoryStudy\\resources\\JPG\\match.jpg,C:\\Users\\Psychology\\Documents\\ABExperiment\\MemoryStudy\\resources\\JPG\\,0,249,249,249,,,,,,,88.91578989999834,None,1,0.11901090000174008,88.91578989999834,None,88.91578989999834,None,test,001,2022-06-22_11h04.58.267,MemoryStudy,2022.1.4,59.95469822707223,
Mem,99,iron01b.jpg,Z,Z,JPG\,iron01b,C:\\Users\\Psychology\\Documents\\ABExperiment\\MemoryStudy\\resources\\JPG\\iron01b.jpg,C:\\Users\\Psychology\\Documents\\ABExperiment\\MemoryStudy\\resources\\JPG\\,0,250,250,250,,,,,,,89.15108360000886,None,1,0.11722659997758456,89.15108360000886,None,89.15108360000886,None,test,001,2022-06-22_11h04.58.267,MemoryStudy,2022.1.4,59.95469822707223,
Mem,99,ring01.jpg,Z,Z,JPG\,ring01,C:\\Users\\Psychology\\Documents\\ABExperiment\\MemoryStudy\\resources\\JPG\\ring01.jpg,C:\\Users\\Psychology\\Documents\\ABExperiment\\MemoryStudy\\resources\\JPG\\,0,251,251,251,,,,,,,89.3716940000013,None,1,0.11974349999218248,89.3716940000013,None,89.3716940000013,None,test,001,2022-06-22_11h04.58.267,MemoryStudy,2022.1.4,59.95469822707223,
Mem,99,pen04b.jpg,Z,Z,JPG\,pen04b,C:\\Users\\Psychology\\Documents\\ABExperiment\\MemoryStudy\\resources\\JPG\\pen04b.jpg,C:\\Users\\Psychology\\Documents\\ABExperiment\\MemoryStudy\\resources\\JPG\\,0,252,252,252,,,,,,,89.60084699999425,None,1,0.1137033999839332,89.60084699999425,None,89.60084699999425,None,test,001,2022-06-22_11h04.58.267,MemoryStudy,2022.1.4,59.95469822707223,
Mem,99,binoculars01b.jpg,Z,Z,JPG\,binoculars01b,C:\\Users\\Psychology\\Documents\\ABExperiment\\MemoryStudy\\resources\\JPG\\binoculars01b.jpg,C:\\Users\\Psychology\\Documents\\ABExperiment\\MemoryStudy\\resources\\JPG\\,0,253,253,253,,,,,,,89.83224769998924,None,1,0.13099330000113696,89.83224769998924,None,89.83224769998924,None,test,001,2022-06-22_11h04.58.267,MemoryStudy,2022.1.4,59.95469822707223,
Mem,99,cauliflower01.jpg,Z,Z,JPG\,cauliflower01,C:\\Users\\Psychology\\Documents\\ABExperiment\\MemoryStudy\\resources\\JPG\\cauliflower01.jpg,C:\\Users\\Psychology\\Documents\\ABExperiment\\MemoryStudy\\resources\\JPG\\,0,254,254,254,,,,,,,90.08343749999767,None,1,0.111382400005823,90.08343749999767,None,90.08343749999767,None,test,001,2022-06-22_11h04.58.267,MemoryStudy,2022.1.4,59.95469822707223,
