TrialType,Lag,Image,T1PA,T2PA,PicFolder,Picture,FullPathName,FilePath,trials.thisRepN,trials.thisTrialN,trials.thisN,trials.thisIndex,text.started,text.stopped,End_Instructions.keys,End_Instructions.rt,End_Instructions.started,End_Instructions.stopped,MemTest.started,MemTest.stopped,MemResponse.keys,MemResponse.rt,MemResponse.started,MemResponse.stopped,Display.started,Display.stopped,participant,session,date,expName,psychopyVersion,frameRate,
,,,,,,,,,,,,,9.295996400003787,None,space,0.3572418999974616,9.295996400003787,None,,,,,,,,,test,001,2022-06-22_09h32.54.115,MemoryStudy,2022.1.4,60.18042090603208,
Mem,1,giraffe.jpg,P,P,JPG\,giraffe,C:\\Users\\Psychology\\Documents\\ABExperiment\\MemoryStudy\\resources\\JPG\\giraffe.jpg,C:\\Users\\Psychology\\Documents\\ABExperiment\\MemoryStudy\\resources\\JPG\\,0,0,0,0,,,,,,,9.858776899985969,None,1,2.098672299995087,9.858776899985969,None,9.858776899985969,None,test,001,2022-06-22_09h32.54.115,MemoryStudy,2022.1.4,60.18042090603208,
Mem,1,greathornowl.jpg,P,P,JPG\,greathornowl,C:\\Users\\Psychology\\Documents\\ABExperiment\\MemoryStudy\\resources\\JPG\\greathornowl.jpg,C:\\Users\\Psychology\\Documents\\ABExperiment\\MemoryStudy\\resources\\JPG\\,0,1,1,1,,,,,,,11.991374899982475,None,1,0.5270258999953512,11.991374899982475,None,11.991374899982475,None,test,001,2022-06-22_09h32.54.115,MemoryStudy,2022.1.4,60.18042090603208,
Mem,1,candle08b.jpg,P,P,JPG\,candle08b,C:\\Users\\Psychology\\Documents\\ABExperiment\\MemoryStudy\\resources\\JPG\\candle08b.jpg,C:\\Users\\Psychology\\Documents\\ABExperiment\\MemoryStudy\\resources\\JPG\\,0,2,2,2,,,,,,,12.667006999981822,None,1,0.418659100017976,12.667006999981822,None,12.667006999981822,None,test,001,2022-06-22_09h32.54.115,MemoryStudy,2022.1.4,60.18042090603208,
Mem,1,horse.jpg,P,P,JPG\,horse,C:\\Users\\Psychology\\Documents\\ABExperiment\\MemoryStudy\\resources\\JPG\\horse.jpg,C:\\Users\\Psychology\\Documents\\ABExperiment\\MemoryStudy\\resources\\JPG\\,0,3,3,3,,,,,,,13.170699199981755,None,1,0.4507166000257712,13.170699199981755,None,13.170699199981755,None,test,001,2022-06-22_09h32.54.115,MemoryStudy,2022.1.4,60.18042090603208,
Mem,1,snowman.jpg,P,P,JPG\,snowman,C:\\Users\\Psychology\\Documents\\ABExperiment\\MemoryStudy\\resources\\JPG\\snowman.jpg,C:\\Users\\Psychology\\Documents\\ABExperiment\\MemoryStudy\\resources\\JPG\\,0,4,4,4,,,,,,,13.64227640000172,None,1,0.4671292999992147,13.64227640000172,None,13.64227640000172,None,test,001,2022-06-22_09h32.54.115,MemoryStudy,2022.1.4,60.18042090603208,
Mem,1,squirrel.jpg,P,P,JPG\,squirrel,C:\\Users\\Psychology\\Documents\\ABExperiment\\MemoryStudy\\resources\\JPG\\squirrel.jpg,C:\\Users\\Psychology\\Documents\\ABExperiment\\MemoryStudy\\resources\\JPG\\,0,5,5,5,,,,,,,14.142680299992207,None,1,0.47097689998918213,14.142680299992207,None,14.142680299992207,None,test,001,2022-06-22_09h32.54.115,MemoryStudy,2022.1.4,60.18042090603208,
Mem,1,firtree.jpg,P,P,JPG\,firtree,C:\\Users\\Psychology\\Documents\\ABExperiment\\MemoryStudy\\resources\\JPG\\firtree.jpg,C:\\Users\\Psychology\\Documents\\ABExperiment\\MemoryStudy\\resources\\JPG\\,0,6,6,6,,,,,,,14.735206499986816,None,1,0.4467454999976326,14.735206499986816,None,14.735206499986816,None,test,001,2022-06-22_09h32.54.115,MemoryStudy,2022.1.4,60.18042090603208,
Mem,1,bowlingball.jpg,P,P,JPG\,bowlingball,C:\\Users\\Psychology\\Documents\\ABExperiment\\MemoryStudy\\resources\\JPG\\bowlingball.jpg,C:\\Users\\Psychology\\Documents\\ABExperiment\\MemoryStudy\\resources\\JPG\\,0,7,7,7,,,,,,,15.210057799995411,None,1,0.5158698000013828,15.210057799995411,None,15.210057799995411,None,test,001,2022-06-22_09h32.54.115,MemoryStudy,2022.1.4,60.18042090603208,
Mem,1,bowlingpin.jpg,P,P,JPG\,bowlingpin,C:\\Users\\Psychology\\Documents\\ABExperiment\\MemoryStudy\\resources\\JPG\\bowlingpin.jpg,C:\\Users\\Psychology\\Documents\\ABExperiment\\MemoryStudy\\resources\\JPG\\,0,8,8,8,,,,,,,15.757994599989615,None,1,0.45514070001081564,15.757994599989615,None,15.757994599989615,None,test,001,2022-06-22_09h32.54.115,MemoryStudy,2022.1.4,60.18042090603208,
Mem,1,candycane01a.jpg,P,P,JPG\,candycane01a,C:\\Users\\Psychology\\Documents\\ABExperiment\\MemoryStudy\\resources\\JPG\\candycane01a.jpg,C:\\Users\\Psychology\\Documents\\ABExperiment\\MemoryStudy\\resources\\JPG\\,0,9,9,9,,,,,,,16.246041400008835,None,1,0.480074599996442,16.246041400008835,None,16.246041400008835,None,test,001,2022-06-22_09h32.54.115,MemoryStudy,2022.1.4,60.18042090603208,
Mem,1,dolphin01.jpg,P,P,JPG\,dolphin01,C:\\Users\\Psychology\\Documents\\ABExperiment\\MemoryStudy\\resources\\JPG\\dolphin01.jpg,C:\\Users\\Psychology\\Documents\\ABExperiment\\MemoryStudy\\resources\\JPG\\,0,10,10,10,,,,,,,16.75924389998545,None,1,0.44731899999896996,16.75924389998545,None,16.75924389998545,None,test,001,2022-06-22_09h32.54.115,MemoryStudy,2022.1.4,60.18042090603208,
Mem,1,dromedary.jpg,P,P,JPG\,dromedary,C:\\Users\\Psychology\\Documents\\ABExperiment\\MemoryStudy\\resources\\JPG\\dromedary.jpg,C:\\Users\\Psychology\\Documents\\ABExperiment\\MemoryStudy\\resources\\JPG\\,0,11,11,11,,,,,,,17.234481599996798,None,1,0.4510920000029728,17.234481599996798,None,17.234481599996798,None,test,001,2022-06-22_09h32.54.115,MemoryStudy,2022.1.4,60.18042090603208,
Mem,1,football.jpg,P,P,JPG\,football,C:\\Users\\Psychology\\Documents\\ABExperiment\\MemoryStudy\\resources\\JPG\\football.jpg,C:\\Users\\Psychology\\Documents\\ABExperiment\\MemoryStudy\\resources\\JPG\\,0,12,12,12,,,,,,,17.71216719999211,None,1,0.4216350000060629,17.71216719999211,None,17.71216719999211,None,test,001,2022-06-22_09h32.54.115,MemoryStudy,2022.1.4,60.18042090603208,
Mem,1,golfball.jpg,P,P,JPG\,golfball,C:\\Users\\Psychology\\Documents\\ABExperiment\\MemoryStudy\\resources\\JPG\\golfball.jpg,C:\\Users\\Psychology\\Documents\\ABExperiment\\MemoryStudy\\resources\\JPG\\,0,13,13,13,,,,,,,18.162498699995922,None,1,0.37101329999859445,18.162498699995922,None,18.162498699995922,None,test,001,2022-06-22_09h32.54.115,MemoryStudy,2022.1.4,60.18042090603208,
Mem,1,guitarcase.jpg,P,P,JPG\,guitarcase,C:\\Users\\Psychology\\Documents\\ABExperiment\\MemoryStudy\\resources\\JPG\\guitarcase.jpg,C:\\Users\\Psychology\\Documents\\ABExperiment\\MemoryStudy\\resources\\JPG\\,0,14,14,14,,,,,,,18.562983000010718,None,1,0.3384817999904044,18.562983000010718,None,18.562983000010718,None,test,001,2022-06-22_09h32.54.115,MemoryStudy,2022.1.4,60.18042090603208,
Mem,1,jellybean.jpg,P,P,JPG\,jellybean,C:\\Users\\Psychology\\Documents\\ABExperiment\\MemoryStudy\\resources\\JPG\\jellybean.jpg,C:\\Users\\Psychology\\Documents\\ABExperiment\\MemoryStudy\\resources\\JPG\\,0,15,15,15,,,,,,,18.92990909999935,None,1,0.30752890001167543,18.92990909999935,None,18.92990909999935,None,test,001,2022-06-22_09h32.54.115,MemoryStudy,2022.1.4,60.18042090603208,
Mem,1,kangaroo.jpg,P,P,JPG\,kangaroo,C:\\Users\\Psychology\\Documents\\ABExperiment\\MemoryStudy\\resources\\JPG\\kangaroo.jpg,C:\\Users\\Psychology\\Documents\\ABExperiment\\MemoryStudy\\resources\\JPG\\,0,16,16,16,,,,,,,19.263430499995593,None,1,0.3738681999966502,19.263430499995593,None,19.263430499995593,None,test,001,2022-06-22_09h32.54.115,MemoryStudy,2022.1.4,60.18042090603208,
Mem,1,kite.jpg,P,P,JPG\,kite,C:\\Users\\Psychology\\Documents\\ABExperiment\\MemoryStudy\\resources\\JPG\\kite.jpg,C:\\Users\\Psychology\\Documents\\ABExperiment\\MemoryStudy\\resources\\JPG\\,0,17,17,17,,,,,,,19.663942999992287,None,1,0.366388199996436,19.663942999992287,None,19.663942999992287,None,test,001,2022-06-22_09h32.54.115,MemoryStudy,2022.1.4,60.18042090603208,
Mem,1,lightswitch01.jpg,P,P,JPG\,lightswitch01,C:\\Users\\Psychology\\Documents\\ABExperiment\\MemoryStudy\\resources\\JPG\\lightswitch01.jpg,C:\\Users\\Psychology\\Documents\\ABExperiment\\MemoryStudy\\resources\\JPG\\,0,18,18,18,,,,,,,20.063888100004988,None,1,0.3657793999882415,20.063888100004988,None,20.063888100004988,None,test,001,2022-06-22_09h32.54.115,MemoryStudy,2022.1.4,60.18042090603208,
Mem,1,locker.jpg,P,P,JPG\,locker,C:\\Users\\Psychology\\Documents\\ABExperiment\\MemoryStudy\\resources\\JPG\\locker.jpg,C:\\Users\\Psychology\\Documents\\ABExperiment\\MemoryStudy\\resources\\JPG\\,0,19,19,19,,,,,,,20.46433529999922,None,1,0.3571806999971159,20.46433529999922,None,20.46433529999922,None,test,001,2022-06-22_09h32.54.115,MemoryStudy,2022.1.4,60.18042090603208,
Mem,1,mailbox01.jpg,P,P,JPG\,mailbox01,C:\\Users\\Psychology\\Documents\\ABExperiment\\MemoryStudy\\resources\\JPG\\mailbox01.jpg,C:\\Users\\Psychology\\Documents\\ABExperiment\\MemoryStudy\\resources\\JPG\\,0,20,20,20,,,,,,,20.947274300007848,None,1,0.27443859999766573,20.947274300007848,None,20.947274300007848,None,test,001,2022-06-22_09h32.54.115,MemoryStudy,2022.1.4,60.18042090603208,
Mem,1,mailbox02.jpg,P,P,JPG\,mailbox02,C:\\Users\\Psychology\\Documents\\ABExperiment\\MemoryStudy\\resources\\JPG\\mailbox02.jpg,C:\\Users\\Psychology\\Documents\\ABExperiment\\MemoryStudy\\resources\\JPG\\,0,21,21,21,,,,,,,21.24960350000765,None,1,0.36375760001828894,21.24960350000765,None,21.24960350000765,None,test,001,2022-06-22_09h32.54.115,MemoryStudy,2022.1.4,60.18042090603208,
Mem,1,mattress.jpg,P,P,JPG\,mattress,C:\\Users\\Psychology\\Documents\\ABExperiment\\MemoryStudy\\resources\\JPG\\mattress.jpg,C:\\Users\\Psychology\\Documents\\ABExperiment\\MemoryStudy\\resources\\JPG\\,0,22,22,22,,,,,,,21.630387199984398,None,1,0.36697999999159947,21.630387199984398,None,21.630387199984398,None,test,001,2022-06-22_09h32.54.115,MemoryStudy,2022.1.4,60.18042090603208,
Mem,1,pumpkin.jpg,P,P,JPG\,pumpkin,C:\\Users\\Psychology\\Documents\\ABExperiment\\MemoryStudy\\resources\\JPG\\pumpkin.jpg,C:\\Users\\Psychology\\Documents\\ABExperiment\\MemoryStudy\\resources\\JPG\\,0,23,23,23,,,,,,,22.01416029999382,None,1,0.37544780000462197,22.01416029999382,None,22.01416029999382,None,test,001,2022-06-22_09h32.54.115,MemoryStudy,2022.1.4,60.18042090603208,
Mem,1,schoolbus.jpg,P,P,JPG\,schoolbus,C:\\Users\\Psychology\\Documents\\ABExperiment\\MemoryStudy\\resources\\JPG\\schoolbus.jpg,C:\\Users\\Psychology\\Documents\\ABExperiment\\MemoryStudy\\resources\\JPG\\,0,24,24,24,,,,,,,22.41458519999287,None,1,0.3191227000206709,22.41458519999287,None,22.41458519999287,None,test,001,2022-06-22_09h32.54.115,MemoryStudy,2022.1.4,60.18042090603208,
Mem,1,skateboard.jpg,P,P,JPG\,skateboard,C:\\Users\\Psychology\\Documents\\ABExperiment\\MemoryStudy\\resources\\JPG\\skateboard.jpg,C:\\Users\\Psychology\\Documents\\ABExperiment\\MemoryStudy\\resources\\JPG\\,0,25,25,25,,,,,,,22.767940299992915,None,1,0.34197609999682754,22.767940299992915,None,22.767940299992915,None,test,001,2022-06-22_09h32.54.115,MemoryStudy,2022.1.4,60.18042090603208,
Mem,1,soccerball.jpg,P,P,JPG\,soccerball,C:\\Users\\Psychology\\Documents\\ABExperiment\\MemoryStudy\\resources\\JPG\\soccerball.jpg,C:\\Users\\Psychology\\Documents\\ABExperiment\\MemoryStudy\\resources\\JPG\\,0,26,26,26,,,,,,,23.13184519999777,None,1,0.3451790999970399,23.13184519999777,None,23.13184519999777,None,test,001,2022-06-22_09h32.54.115,MemoryStudy,2022.1.4,60.18042090603208,
Mem,1,wheelchair.jpg,P,P,JPG\,wheelchair,C:\\Users\\Psychology\\Documents\\ABExperiment\\MemoryStudy\\resources\\JPG\\wheelchair.jpg,C:\\Users\\Psychology\\Documents\\ABExperiment\\MemoryStudy\\resources\\JPG\\,0,27,27,27,,,,,,,23.499003300006734,None,1,0.3301869999850169,23.499003300006734,None,23.499003300006734,None,test,001,2022-06-22_09h32.54.115,MemoryStudy,2022.1.4,60.18042090603208,
Mem,1,zebra.jpg,P,P,JPG\,zebra,C:\\Users\\Psychology\\Documents\\ABExperiment\\MemoryStudy\\resources\\JPG\\zebra.jpg,C:\\Users\\Psychology\\Documents\\ABExperiment\\MemoryStudy\\resources\\JPG\\,0,28,28,28,,,,,,,23.849449700006517,None,1,0.3328396999859251,23.849449700006517,None,23.849449700006517,None,test,001,2022-06-22_09h32.54.115,MemoryStudy,2022.1.4,60.18042090603208,
Mem,1,pooltable.jpg,P,P,JPG\,pooltable,C:\\Users\\Psychology\\Documents\\ABExperiment\\MemoryStudy\\resources\\JPG\\pooltable.jpg,C:\\Users\\Psychology\\Documents\\ABExperiment\\MemoryStudy\\resources\\JPG\\,0,29,29,29,,,,,,,24.19977999999537,None,1,0.3579418000008445,24.19977999999537,None,24.19977999999537,None,test,001,2022-06-22_09h32.54.115,MemoryStudy,2022.1.4,60.18042090603208,
Mem,1,swing.jpg,P,P,JPG\,swing,C:\\Users\\Psychology\\Documents\\ABExperiment\\MemoryStudy\\resources\\JPG\\swing.jpg,C:\\Users\\Psychology\\Documents\\ABExperiment\\MemoryStudy\\resources\\JPG\\,0,30,30,30,,,,,,,24.583474699989893,None,1,0.3500573999772314,24.583474699989893,None,24.583474699989893,None,test,001,2022-06-22_09h32.54.115,MemoryStudy,2022.1.4,60.18042090603208,
Mem,1,africanelephant.jpg,P,P,JPG\,africanelephant,C:\\Users\\Psychology\\Documents\\ABExperiment\\MemoryStudy\\resources\\JPG\\africanelephant.jpg,C:\\Users\\Psychology\\Documents\\ABExperiment\\MemoryStudy\\resources\\JPG\\,0,31,31,31,,,,,,,24.95106309998664,None,1,0.36618989999988116,24.95106309998664,None,24.95106309998664,None,test,001,2022-06-22_09h32.54.115,MemoryStudy,2022.1.4,60.18042090603208,
Mem,1,apron.jpg,P,P,JPG\,apron,C:\\Users\\Psychology\\Documents\\ABExperiment\\MemoryStudy\\resources\\JPG\\apron.jpg,C:\\Users\\Psychology\\Documents\\ABExperiment\\MemoryStudy\\resources\\JPG\\,0,32,32,32,,,,,,,25.334260400006315,None,1,0.3755468000017572,25.334260400006315,None,25.334260400006315,None,test,001,2022-06-22_09h32.54.115,MemoryStudy,2022.1.4,60.18042090603208,
Mem,1,barnowl.jpg,P,P,JPG\,barnowl,C:\\Users\\Psychology\\Documents\\ABExperiment\\MemoryStudy\\resources\\JPG\\barnowl.jpg,C:\\Users\\Psychology\\Documents\\ABExperiment\\MemoryStudy\\resources\\JPG\\,0,33,33,33,,,,,,,25.8259798999934,None,1,0.29104010001174174,25.8259798999934,None,25.8259798999934,None,test,001,2022-06-22_09h32.54.115,MemoryStudy,2022.1.4,60.18042090603208,
Mem,1,basketball01.jpg,P,P,JPG\,basketball01,C:\\Users\\Psychology\\Documents\\ABExperiment\\MemoryStudy\\resources\\JPG\\basketball01.jpg,C:\\Users\\Psychology\\Documents\\ABExperiment\\MemoryStudy\\resources\\JPG\\,0,34,34,34,,,,,,,26.149867700005416,None,1,0.3515625,26.149867700005416,None,26.149867700005416,None,test,001,2022-06-22_09h32.54.115,MemoryStudy,2022.1.4,60.18042090603208,
Mem,1,bat.jpg,P,P,JPG\,bat,C:\\Users\\Psychology\\Documents\\ABExperiment\\MemoryStudy\\resources\\JPG\\bat.jpg,C:\\Users\\Psychology\\Documents\\ABExperiment\\MemoryStudy\\resources\\JPG\\,0,35,35,35,,,,,,,26.51882860000478,None,1,0.37407790002180263,26.51882860000478,None,26.51882860000478,None,test,001,2022-06-22_09h32.54.115,MemoryStudy,2022.1.4,60.18042090603208,
Mem,1,cloud.jpg,P,P,JPG\,cloud,C:\\Users\\Psychology\\Documents\\ABExperiment\\MemoryStudy\\resources\\JPG\\cloud.jpg,C:\\Users\\Psychology\\Documents\\ABExperiment\\MemoryStudy\\resources\\JPG\\,0,36,36,36,,,,,,,26.921633799996926,None,1,0.3720871999976225,26.921633799996926,None,26.921633799996926,None,test,001,2022-06-22_09h32.54.115,MemoryStudy,2022.1.4,60.18042090603208,
Mem,1,crab01.jpg,P,P,JPG\,crab01,C:\\Users\\Psychology\\Documents\\ABExperiment\\MemoryStudy\\resources\\JPG\\crab01.jpg,C:\\Users\\Psychology\\Documents\\ABExperiment\\MemoryStudy\\resources\\JPG\\,0,37,37,37,,,,,,,27.321708700008458,None,1,0.3638470000005327,27.321708700008458,None,27.321708700008458,None,test,001,2022-06-22_09h32.54.115,MemoryStudy,2022.1.4,60.18042090603208,
Mem,1,cupcake.jpg,P,P,JPG\,cupcake,C:\\Users\\Psychology\\Documents\\ABExperiment\\MemoryStudy\\resources\\JPG\\cupcake.jpg,C:\\Users\\Psychology\\Documents\\ABExperiment\\MemoryStudy\\resources\\JPG\\,0,38,38,38,,,,,,,27.70560580000165,None,1,0.3638572999916505,27.70560580000165,None,27.70560580000165,None,test,001,2022-06-22_09h32.54.115,MemoryStudy,2022.1.4,60.18042090603208,
Mem,1,donut.jpg,P,P,JPG\,donut,C:\\Users\\Psychology\\Documents\\ABExperiment\\MemoryStudy\\resources\\JPG\\donut.jpg,C:\\Users\\Psychology\\Documents\\ABExperiment\\MemoryStudy\\resources\\JPG\\,0,39,39,39,,,,,,,28.08925319998525,None,1,0.3564141999813728,28.08925319998525,None,28.08925319998525,None,test,001,2022-06-22_09h32.54.115,MemoryStudy,2022.1.4,60.18042090603208,
Mem,1,eiffeltower.jpg,P,P,JPG\,eiffeltower,C:\\Users\\Psychology\\Documents\\ABExperiment\\MemoryStudy\\resources\\JPG\\eiffeltower.jpg,C:\\Users\\Psychology\\Documents\\ABExperiment\\MemoryStudy\\resources\\JPG\\,0,40,40,40,,,,,,,28.472570599988103,None,1,0.31687380000948906,28.472570599988103,None,28.472570599988103,None,test,001,2022-06-22_09h32.54.115,MemoryStudy,2022.1.4,60.18042090603208,
Mem,1,exitsign.jpg,P,P,JPG\,exitsign,C:\\Users\\Psychology\\Documents\\ABExperiment\\MemoryStudy\\resources\\JPG\\exitsign.jpg,C:\\Users\\Psychology\\Documents\\ABExperiment\\MemoryStudy\\resources\\JPG\\,0,41,41,41,,,,,,,28.822677399992244,None,1,0.3348701000213623,28.822677399992244,None,28.822677399992244,None,test,001,2022-06-22_09h32.54.115,MemoryStudy,2022.1.4,60.18042090603208,
Mem,1,fortunecookie.jpg,P,P,JPG\,fortunecookie,C:\\Users\\Psychology\\Documents\\ABExperiment\\MemoryStudy\\resources\\JPG\\fortunecookie.jpg,C:\\Users\\Psychology\\Documents\\ABExperiment\\MemoryStudy\\resources\\JPG\\,0,42,42,42,,,,,,,29.189797500002896,None,1,0.3288571999873966,29.189797500002896,None,29.189797500002896,None,test,001,2022-06-22_09h32.54.115,MemoryStudy,2022.1.4,60.18042090603208,
Mem,1,harmonica.jpg,P,P,JPG\,harmonica,C:\\Users\\Psychology\\Documents\\ABExperiment\\MemoryStudy\\resources\\JPG\\harmonica.jpg,C:\\Users\\Psychology\\Documents\\ABExperiment\\MemoryStudy\\resources\\JPG\\,0,43,43,43,,,,,,,29.540666899993084,None,1,0.3209311999962665,29.540666899993084,None,29.540666899993084,None,test,001,2022-06-22_09h32.54.115,MemoryStudy,2022.1.4,60.18042090603208,
Mem,1,doghouse.jpg,P,P,JPG\,doghouse,C:\\Users\\Psychology\\Documents\\ABExperiment\\MemoryStudy\\resources\\JPG\\doghouse.jpg,C:\\Users\\Psychology\\Documents\\ABExperiment\\MemoryStudy\\resources\\JPG\\,0,44,44,44,,,,,,,29.890916000003926,None,1,0.2984733000048436,29.890916000003926,None,29.890916000003926,None,test,001,2022-06-22_09h32.54.115,MemoryStudy,2022.1.4,60.18042090603208,
Mem,1,ladder.jpg,P,P,JPG\,ladder,C:\\Users\\Psychology\\Documents\\ABExperiment\\MemoryStudy\\resources\\JPG\\ladder.jpg,C:\\Users\\Psychology\\Documents\\ABExperiment\\MemoryStudy\\resources\\JPG\\,0,45,45,45,,,,,,,30.22387799998978,None,1,0.3174116999725811,30.22387799998978,None,30.22387799998978,None,test,001,2022-06-22_09h32.54.115,MemoryStudy,2022.1.4,60.18042090603208,
Mem,1,lawnmower.jpg,P,P,JPG\,lawnmower,C:\\Users\\Psychology\\Documents\\ABExperiment\\MemoryStudy\\resources\\JPG\\lawnmower.jpg,C:\\Users\\Psychology\\Documents\\ABExperiment\\MemoryStudy\\resources\\JPG\\,0,46,46,46,,,,,,,30.576504900003783,None,1,0.3328532000014093,30.576504900003783,None,30.576504900003783,None,test,001,2022-06-22_09h32.54.115,MemoryStudy,2022.1.4,60.18042090603208,
Mem,1,parkingsign.jpg,P,P,JPG\,parkingsign,C:\\Users\\Psychology\\Documents\\ABExperiment\\MemoryStudy\\resources\\JPG\\parkingsign.jpg,C:\\Users\\Psychology\\Documents\\ABExperiment\\MemoryStudy\\resources\\JPG\\,0,47,47,47,,,,,,,30.940088700008346,None,1,0.29025270001147874,30.940088700008346,None,30.940088700008346,None,test,001,2022-06-22_09h32.54.115,MemoryStudy,2022.1.4,60.18042090603208,
Mem,1,skunk.jpg,P,P,JPG\,skunk,C:\\Users\\Psychology\\Documents\\ABExperiment\\MemoryStudy\\resources\\JPG\\skunk.jpg,C:\\Users\\Psychology\\Documents\\ABExperiment\\MemoryStudy\\resources\\JPG\\,0,48,48,48,,,,,,,31.25716390000889,None,1,0.2843085000058636,31.25716390000889,None,31.25716390000889,None,test,001,2022-06-22_09h32.54.115,MemoryStudy,2022.1.4,60.18042090603208,
Mem,1,snowboard.jpg,P,P,JPG\,snowboard,C:\\Users\\Psychology\\Documents\\ABExperiment\\MemoryStudy\\resources\\JPG\\snowboard.jpg,C:\\Users\\Psychology\\Documents\\ABExperiment\\MemoryStudy\\resources\\JPG\\,0,49,49,49,,,,,,,31.574005100002978,None,1,0.2795367000217084,31.574005100002978,None,31.574005100002978,None,test,001,2022-06-22_09h32.54.115,MemoryStudy,2022.1.4,60.18042090603208,
Mem,1,tiger02.jpg,P,P,JPG\,tiger02,C:\\Users\\Psychology\\Documents\\ABExperiment\\MemoryStudy\\resources\\JPG\\tiger02.jpg,C:\\Users\\Psychology\\Documents\\ABExperiment\\MemoryStudy\\resources\\JPG\\,0,50,50,50,,,,,,,31.874704599991674,None,1,0.3227896000025794,31.874704599991674,None,31.874704599991674,None,test,001,2022-06-22_09h32.54.115,MemoryStudy,2022.1.4,60.18042090603208,
Mem,1,tree.jpg,P,P,JPG\,tree,C:\\Users\\Psychology\\Documents\\ABExperiment\\MemoryStudy\\resources\\JPG\\tree.jpg,C:\\Users\\Psychology\\Documents\\ABExperiment\\MemoryStudy\\resources\\JPG\\,0,51,51,51,,,,,,,32.22500619999482,None,1,0.27760589998797514,32.22500619999482,None,32.22500619999482,None,test,001,2022-06-22_09h32.54.115,MemoryStudy,2022.1.4,60.18042090603208,
Mem,1,waterfall.jpg,P,P,JPG\,waterfall,C:\\Users\\Psychology\\Documents\\ABExperiment\\MemoryStudy\\resources\\JPG\\waterfall.jpg,C:\\Users\\Psychology\\Documents\\ABExperiment\\MemoryStudy\\resources\\JPG\\,0,52,52,52,,,,,,,32.53957100000116,None,1,0.27425870002480224,32.53957100000116,None,32.53957100000116,None,test,001,2022-06-22_09h32.54.115,MemoryStudy,2022.1.4,60.18042090603208,
Mem,1,bow.jpg,P,P,JPG\,bow,C:\\Users\\Psychology\\Documents\\ABExperiment\\MemoryStudy\\resources\\JPG\\bow.jpg,C:\\Users\\Psychology\\Documents\\ABExperiment\\MemoryStudy\\resources\\JPG\\,0,53,53,53,,,,,,,32.84233220000169,None,1,0.26761950002401136,32.84233220000169,None,32.84233220000169,None,test,001,2022-06-22_09h32.54.115,MemoryStudy,2022.1.4,60.18042090603208,
Mem,1,arugula.jpg,P,P,JPG\,arugula,C:\\Users\\Psychology\\Documents\\ABExperiment\\MemoryStudy\\resources\\JPG\\arugula.jpg,C:\\Users\\Psychology\\Documents\\ABExperiment\\MemoryStudy\\resources\\JPG\\,0,54,54,54,,,,,,,33.21715179999592,None,1,0.21263590001035482,33.21715179999592,None,33.21715179999592,None,test,001,2022-06-22_09h32.54.115,MemoryStudy,2022.1.4,60.18042090603208,
Mem,1,beaver.jpg,P,P,JPG\,beaver,C:\\Users\\Psychology\\Documents\\ABExperiment\\MemoryStudy\\resources\\JPG\\beaver.jpg,C:\\Users\\Psychology\\Documents\\ABExperiment\\MemoryStudy\\resources\\JPG\\,0,55,55,55,,,,,,,33.45846120000351,None,1,0.30691610000212677,33.45846120000351,None,33.45846120000351,None,test,001,2022-06-22_09h32.54.115,MemoryStudy,2022.1.4,60.18042090603208,
Mem,1,snowglobe.jpg,P,P,JPG\,snowglobe,C:\\Users\\Psychology\\Documents\\ABExperiment\\MemoryStudy\\resources\\JPG\\snowglobe.jpg,C:\\Users\\Psychology\\Documents\\ABExperiment\\MemoryStudy\\resources\\JPG\\,0,56,56,56,,,,,,,33.89021089999005,None,1,0.22740390000399202,33.89021089999005,None,33.89021089999005,None,test,001,2022-06-22_09h32.54.115,MemoryStudy,2022.1.4,60.18042090603208,
Mem,1,bullet.jpg,P,P,JPG\,bullet,C:\\Users\\Psychology\\Documents\\ABExperiment\\MemoryStudy\\resources\\JPG\\bullet.jpg,C:\\Users\\Psychology\\Documents\\ABExperiment\\MemoryStudy\\resources\\JPG\\,0,57,57,57,,,,,,,34.142960900004255,None,1,0.35150920000160113,34.142960900004255,None,34.142960900004255,None,test,001,2022-06-22_09h32.54.115,MemoryStudy,2022.1.4,60.18042090603208,
Mem,1,cactus.jpg,P,P,JPG\,cactus,C:\\Users\\Psychology\\Documents\\ABExperiment\\MemoryStudy\\resources\\JPG\\cactus.jpg,C:\\Users\\Psychology\\Documents\\ABExperiment\\MemoryStudy\\resources\\JPG\\,0,58,58,58,,,,,,,34.52677759999642,None,1,0.35106810001889244,34.52677759999642,None,34.52677759999642,None,test,001,2022-06-22_09h32.54.115,MemoryStudy,2022.1.4,60.18042090603208,
Mem,1,cow.jpg,P,P,JPG\,cow,C:\\Users\\Psychology\\Documents\\ABExperiment\\MemoryStudy\\resources\\JPG\\cow.jpg,C:\\Users\\Psychology\\Documents\\ABExperiment\\MemoryStudy\\resources\\JPG\\,0,59,59,59,,,,,,,34.91041720000794,None,1,0.326892199984286,34.91041720000794,None,34.91041720000794,None,test,001,2022-06-22_09h32.54.115,MemoryStudy,2022.1.4,60.18042090603208,
Mem,1,discoball.jpg,P,P,JPG\,discoball,C:\\Users\\Psychology\\Documents\\ABExperiment\\MemoryStudy\\resources\\JPG\\discoball.jpg,C:\\Users\\Psychology\\Documents\\ABExperiment\\MemoryStudy\\resources\\JPG\\,0,60,60,60,,,,,,,35.263681999989785,None,1,0.3333167999808211,35.263681999989785,None,35.263681999989785,None,test,001,2022-06-22_09h32.54.115,MemoryStudy,2022.1.4,60.18042090603208,
Mem,1,drumstick.jpg,P,P,JPG\,drumstick,C:\\Users\\Psychology\\Documents\\ABExperiment\\MemoryStudy\\resources\\JPG\\drumstick.jpg,C:\\Users\\Psychology\\Documents\\ABExperiment\\MemoryStudy\\resources\\JPG\\,0,61,61,61,,,,,,,35.62825459998567,None,1,0.32868460001191124,35.62825459998567,None,35.62825459998567,None,test,001,2022-06-22_09h32.54.115,MemoryStudy,2022.1.4,60.18042090603208,
Mem,1,fingerprint.jpg,P,P,JPG\,fingerprint,C:\\Users\\Psychology\\Documents\\ABExperiment\\MemoryStudy\\resources\\JPG\\fingerprint.jpg,C:\\Users\\Psychology\\Documents\\ABExperiment\\MemoryStudy\\resources\\JPG\\,0,62,62,62,,,,,,,35.97896010000841,None,1,0.3148858000058681,35.97896010000841,None,35.97896010000841,None,test,001,2022-06-22_09h32.54.115,MemoryStudy,2022.1.4,60.18042090603208,
Mem,1,hockeystick.jpg,P,P,JPG\,hockeystick,C:\\Users\\Psychology\\Documents\\ABExperiment\\MemoryStudy\\resources\\JPG\\hockeystick.jpg,C:\\Users\\Psychology\\Documents\\ABExperiment\\MemoryStudy\\resources\\JPG\\,0,63,63,63,,,,,,,36.31249720000778,None,1,0.3095718999975361,36.31249720000778,None,36.31249720000778,None,test,001,2022-06-22_09h32.54.115,MemoryStudy,2022.1.4,60.18042090603208,
Mem,1,hulahoop.jpg,P,P,JPG\,hulahoop,C:\\Users\\Psychology\\Documents\\ABExperiment\\MemoryStudy\\resources\\JPG\\hulahoop.jpg,C:\\Users\\Psychology\\Documents\\ABExperiment\\MemoryStudy\\resources\\JPG\\,0,64,64,64,,,,,,,36.64602650000597,None,1,0.31103530002292246,36.64602650000597,None,36.64602650000597,None,test,001,2022-06-22_09h32.54.115,MemoryStudy,2022.1.4,60.18042090603208,
Mem,1,ladybug03.jpg,P,P,JPG\,ladybug03,C:\\Users\\Psychology\\Documents\\ABExperiment\\MemoryStudy\\resources\\JPG\\ladybug03.jpg,C:\\Users\\Psychology\\Documents\\ABExperiment\\MemoryStudy\\resources\\JPG\\,0,65,65,65,,,,,,,36.987590100005036,None,1,0.32225160000962205,36.987590100005036,None,36.987590100005036,None,test,001,2022-06-22_09h32.54.115,MemoryStudy,2022.1.4,60.18042090603208,
Mem,1,magneticcompass.jpg,P,P,JPG\,magneticcompass,C:\\Users\\Psychology\\Documents\\ABExperiment\\MemoryStudy\\resources\\JPG\\magneticcompass.jpg,C:\\Users\\Psychology\\Documents\\ABExperiment\\MemoryStudy\\resources\\JPG\\,0,66,66,66,,,,,,,37.33794629998738,None,1,0.3078044999856502,37.33794629998738,None,37.33794629998738,None,test,001,2022-06-22_09h32.54.115,MemoryStudy,2022.1.4,60.18042090603208,
Mem,1,moose.jpg,P,P,JPG\,moose,C:\\Users\\Psychology\\Documents\\ABExperiment\\MemoryStudy\\resources\\JPG\\moose.jpg,C:\\Users\\Psychology\\Documents\\ABExperiment\\MemoryStudy\\resources\\JPG\\,0,67,67,67,,,,,,,37.66540040000109,None,1,0.2932530999823939,37.66540040000109,None,37.66540040000109,None,test,001,2022-06-22_09h32.54.115,MemoryStudy,2022.1.4,60.18042090603208,
Mem,1,peacock.jpg,P,P,JPG\,peacock,C:\\Users\\Psychology\\Documents\\ABExperiment\\MemoryStudy\\resources\\JPG\\peacock.jpg,C:\\Users\\Psychology\\Documents\\ABExperiment\\MemoryStudy\\resources\\JPG\\,0,68,68,68,,,,,,,37.982525300001726,None,1,0.3031284000026062,37.982525300001726,None,37.982525300001726,None,test,001,2022-06-22_09h32.54.115,MemoryStudy,2022.1.4,60.18042090603208,
Mem,1,rooster.jpg,P,P,JPG\,rooster,C:\\Users\\Psychology\\Documents\\ABExperiment\\MemoryStudy\\resources\\JPG\\rooster.jpg,C:\\Users\\Psychology\\Documents\\ABExperiment\\MemoryStudy\\resources\\JPG\\,0,69,69,69,,,,,,,38.31573370000115,None,1,0.3059750000247732,38.31573370000115,None,38.31573370000115,None,test,001,2022-06-22_09h32.54.115,MemoryStudy,2022.1.4,60.18042090603208,
Mem,1,sandcastle.jpg,P,P,JPG\,sandcastle,C:\\Users\\Psychology\\Documents\\ABExperiment\\MemoryStudy\\resources\\JPG\\sandcastle.jpg,C:\\Users\\Psychology\\Documents\\ABExperiment\\MemoryStudy\\resources\\JPG\\,0,70,70,70,,,,,,,38.64953729999252,None,1,0.3241418999969028,38.64953729999252,None,38.64953729999252,None,test,001,2022-06-22_09h32.54.115,MemoryStudy,2022.1.4,60.18042090603208,
Mem,1,sheep.jpg,P,P,JPG\,sheep,C:\\Users\\Psychology\\Documents\\ABExperiment\\MemoryStudy\\resources\\JPG\\sheep.jpg,C:\\Users\\Psychology\\Documents\\ABExperiment\\MemoryStudy\\resources\\JPG\\,0,71,71,71,,,,,,,39.00021279999055,None,1,0.32640200000605546,39.00021279999055,None,39.00021279999055,None,test,001,2022-06-22_09h32.54.115,MemoryStudy,2022.1.4,60.18042090603208,
Mem,1,spiderweb.jpg,P,P,JPG\,spiderweb,C:\\Users\\Psychology\\Documents\\ABExperiment\\MemoryStudy\\resources\\JPG\\spiderweb.jpg,C:\\Users\\Psychology\\Documents\\ABExperiment\\MemoryStudy\\resources\\JPG\\,0,72,72,72,,,,,,,39.350366600003326,None,1,0.3028366999933496,39.350366600003326,None,39.350366600003326,None,test,001,2022-06-22_09h32.54.115,MemoryStudy,2022.1.4,60.18042090603208,
Mem,1,trampoline.jpg,P,P,JPG\,trampoline,C:\\Users\\Psychology\\Documents\\ABExperiment\\MemoryStudy\\resources\\JPG\\trampoline.jpg,C:\\Users\\Psychology\\Documents\\ABExperiment\\MemoryStudy\\resources\\JPG\\,0,73,73,73,,,,,,,39.683947799989255,None,1,0.28111929999431595,39.683947799989255,None,39.683947799989255,None,test,001,2022-06-22_09h32.54.115,MemoryStudy,2022.1.4,60.18042090603208,
Mem,1,trophy01.jpg,P,P,JPG\,trophy01,C:\\Users\\Psychology\\Documents\\ABExperiment\\MemoryStudy\\resources\\JPG\\trophy01.jpg,C:\\Users\\Psychology\\Documents\\ABExperiment\\MemoryStudy\\resources\\JPG\\,0,74,74,74,,,,,,,39.98454320000019,None,1,0.3007558999815956,39.98454320000019,None,39.98454320000019,None,test,001,2022-06-22_09h32.54.115,MemoryStudy,2022.1.4,60.18042090603208,
Mem,1,windmill.jpg,P,P,JPG\,windmill,C:\\Users\\Psychology\\Documents\\ABExperiment\\MemoryStudy\\resources\\JPG\\windmill.jpg,C:\\Users\\Psychology\\Documents\\ABExperiment\\MemoryStudy\\resources\\JPG\\,0,75,75,75,,,,,,,40.31754230000661,None,1,0.3038722999917809,40.31754230000661,None,40.31754230000661,None,test,001,2022-06-22_09h32.54.115,MemoryStudy,2022.1.4,60.18042090603208,
Mem,1,arrow02.jpg,P,P,JPG\,arrow02,C:\\Users\\Psychology\\Documents\\ABExperiment\\MemoryStudy\\resources\\JPG\\arrow02.jpg,C:\\Users\\Psychology\\Documents\\ABExperiment\\MemoryStudy\\resources\\JPG\\,0,76,76,76,,,,,,,40.65138009999646,None,1,0.29783860000316054,40.65138009999646,None,40.65138009999646,None,test,001,2022-06-22_09h32.54.115,MemoryStudy,2022.1.4,60.18042090603208,
Mem,1,birdhouse.jpg,P,P,JPG\,birdhouse,C:\\Users\\Psychology\\Documents\\ABExperiment\\MemoryStudy\\resources\\JPG\\birdhouse.jpg,C:\\Users\\Psychology\\Documents\\ABExperiment\\MemoryStudy\\resources\\JPG\\,0,77,77,77,,,,,,,40.96867760000168,None,1,0.29251319999457337,40.96867760000168,None,40.96867760000168,None,test,001,2022-06-22_09h32.54.115,MemoryStudy,2022.1.4,60.18042090603208,
Mem,1,bridge.jpg,P,P,JPG\,bridge,C:\\Users\\Psychology\\Documents\\ABExperiment\\MemoryStudy\\resources\\JPG\\bridge.jpg,C:\\Users\\Psychology\\Documents\\ABExperiment\\MemoryStudy\\resources\\JPG\\,0,78,78,78,,,,,,,41.28547840000829,None,1,0.3045325999846682,41.28547840000829,None,41.28547840000829,None,test,001,2022-06-22_09h32.54.115,MemoryStudy,2022.1.4,60.18042090603208,
Mem,1,cashregister01.jpg,P,P,JPG\,cashregister01,C:\\Users\\Psychology\\Documents\\ABExperiment\\MemoryStudy\\resources\\JPG\\cashregister01.jpg,C:\\Users\\Psychology\\Documents\\ABExperiment\\MemoryStudy\\resources\\JPG\\,0,79,79,79,,,,,,,41.62329019999015,None,1,0.28662210001493804,41.62329019999015,None,41.62329019999015,None,test,001,2022-06-22_09h32.54.115,MemoryStudy,2022.1.4,60.18042090603208,
Mem,1,dartboard.jpg,P,P,JPG\,dartboard,C:\\Users\\Psychology\\Documents\\ABExperiment\\MemoryStudy\\resources\\JPG\\dartboard.jpg,C:\\Users\\Psychology\\Documents\\ABExperiment\\MemoryStudy\\resources\\JPG\\,0,80,80,80,,,,,,,41.93671650000033,None,1,0.30895750000490807,41.93671650000033,None,41.93671650000033,None,test,001,2022-06-22_09h32.54.115,MemoryStudy,2022.1.4,60.18042090603208,
Mem,1,dreamcatcher.jpg,P,P,JPG\,dreamcatcher,C:\\Users\\Psychology\\Documents\\ABExperiment\\MemoryStudy\\resources\\JPG\\dreamcatcher.jpg,C:\\Users\\Psychology\\Documents\\ABExperiment\\MemoryStudy\\resources\\JPG\\,0,81,81,81,,,,,,,42.26990859999205,None,1,0.3037379999877885,42.26990859999205,None,42.26990859999205,None,test,001,2022-06-22_09h32.54.115,MemoryStudy,2022.1.4,60.18042090603208,
Mem,1,escalator.jpg,P,P,JPG\,escalator,C:\\Users\\Psychology\\Documents\\ABExperiment\\MemoryStudy\\resources\\JPG\\escalator.jpg,C:\\Users\\Psychology\\Documents\\ABExperiment\\MemoryStudy\\resources\\JPG\\,0,82,82,82,,,,,,,42.60133899998618,None,1,0.2926308000169229,42.60133899998618,None,42.60133899998618,None,test,001,2022-06-22_09h32.54.115,MemoryStudy,2022.1.4,60.18042090603208,
Mem,1,firehydrant.jpg,P,P,JPG\,firehydrant,C:\\Users\\Psychology\\Documents\\ABExperiment\\MemoryStudy\\resources\\JPG\\firehydrant.jpg,C:\\Users\\Psychology\\Documents\\ABExperiment\\MemoryStudy\\resources\\JPG\\,0,83,83,83,,,,,,,42.918399199988926,None,1,0.2785604000091553,42.918399199988926,None,42.918399199988926,None,test,001,2022-06-22_09h32.54.115,MemoryStudy,2022.1.4,60.18042090603208,
Mem,1,greatwhiteshark.jpg,P,P,JPG\,greatwhiteshark,C:\\Users\\Psychology\\Documents\\ABExperiment\\MemoryStudy\\resources\\JPG\\greatwhiteshark.jpg,C:\\Users\\Psychology\\Documents\\ABExperiment\\MemoryStudy\\resources\\JPG\\,0,84,84,84,,,,,,,43.218605100002605,None,1,0.29021959999226965,43.218605100002605,None,43.218605100002605,None,test,001,2022-06-22_09h32.54.115,MemoryStudy,2022.1.4,60.18042090603208,
Mem,1,helicopter.jpg,P,P,JPG\,helicopter,C:\\Users\\Psychology\\Documents\\ABExperiment\\MemoryStudy\\resources\\JPG\\helicopter.jpg,C:\\Users\\Psychology\\Documents\\ABExperiment\\MemoryStudy\\resources\\JPG\\,0,85,85,85,,,,,,,43.535622900002636,None,1,0.2612412000016775,43.535622900002636,None,43.535622900002636,None,test,001,2022-06-22_09h32.54.115,MemoryStudy,2022.1.4,60.18042090603208,
Mem,1,smokingsign.jpg,P,P,JPG\,smokingsign,C:\\Users\\Psychology\\Documents\\ABExperiment\\MemoryStudy\\resources\\JPG\\smokingsign.jpg,C:\\Users\\Psychology\\Documents\\ABExperiment\\MemoryStudy\\resources\\JPG\\,0,86,86,86,,,,,,,43.81930289999582,None,1,0.2746257999970112,43.81930289999582,None,43.81930289999582,None,test,001,2022-06-22_09h32.54.115,MemoryStudy,2022.1.4,60.18042090603208,
Mem,1,barnowl.jpg,P,P,JPG\,barnowl,C:\\Users\\Psychology\\Documents\\ABExperiment\\MemoryStudy\\resources\\JPG\\barnowl.jpg,C:\\Users\\Psychology\\Documents\\ABExperiment\\MemoryStudy\\resources\\JPG\\,0,87,87,87,,,,,,,44.19324469999992,None,1,0.22763549999217503,44.19324469999992,None,44.19324469999992,None,test,001,2022-06-22_09h32.54.115,MemoryStudy,2022.1.4,60.18042090603208,
Mem,1,pig.jpg,P,P,JPG\,pig,C:\\Users\\Psychology\\Documents\\ABExperiment\\MemoryStudy\\resources\\JPG\\pig.jpg,C:\\Users\\Psychology\\Documents\\ABExperiment\\MemoryStudy\\resources\\JPG\\,0,88,88,88,,,,,,,44.452692599996226,None,1,0.30490560000180267,44.452692599996226,None,44.452692599996226,None,test,001,2022-06-22_09h32.54.115,MemoryStudy,2022.1.4,60.18042090603208,
Mem,1,polarbear.jpg,P,P,JPG\,polarbear,C:\\Users\\Psychology\\Documents\\ABExperiment\\MemoryStudy\\resources\\JPG\\polarbear.jpg,C:\\Users\\Psychology\\Documents\\ABExperiment\\MemoryStudy\\resources\\JPG\\,0,89,89,89,,,,,,,44.79149139998481,None,1,0.25405229997704737,44.79149139998481,None,44.79149139998481,None,test,001,2022-06-22_09h32.54.115,MemoryStudy,2022.1.4,60.18042090603208,
Mem,1,sandbarshark.jpg,P,P,JPG\,sandbarshark,C:\\Users\\Psychology\\Documents\\ABExperiment\\MemoryStudy\\resources\\JPG\\sandbarshark.jpg,C:\\Users\\Psychology\\Documents\\ABExperiment\\MemoryStudy\\resources\\JPG\\,0,90,90,90,,,,,,,45.14096210000571,None,1,0.21642009998322465,45.14096210000571,None,45.14096210000571,None,test,001,2022-06-22_09h32.54.115,MemoryStudy,2022.1.4,60.18042090603208,
Mem,1,telescope.jpg,P,P,JPG\,telescope,C:\\Users\\Psychology\\Documents\\ABExperiment\\MemoryStudy\\resources\\JPG\\telescope.jpg,C:\\Users\\Psychology\\Documents\\ABExperiment\\MemoryStudy\\resources\\JPG\\,0,91,91,91,,,,,,,45.39035529998364,None,1,0.2791080999886617,45.39035529998364,None,45.39035529998364,None,test,001,2022-06-22_09h32.54.115,MemoryStudy,2022.1.4,60.18042090603208,
Mem,1,tent.jpg,P,P,JPG\,tent,C:\\Users\\Psychology\\Documents\\ABExperiment\\MemoryStudy\\resources\\JPG\\tent.jpg,C:\\Users\\Psychology\\Documents\\ABExperiment\\MemoryStudy\\resources\\JPG\\,0,92,92,92,,,,,,,45.687997600005474,None,1,0.301555299985921,45.687997600005474,None,45.687997600005474,None,test,001,2022-06-22_09h32.54.115,MemoryStudy,2022.1.4,60.18042090603208,
Mem,1,toilet.jpg,P,P,JPG\,toilet,C:\\Users\\Psychology\\Documents\\ABExperiment\\MemoryStudy\\resources\\JPG\\toilet.jpg,C:\\Users\\Psychology\\Documents\\ABExperiment\\MemoryStudy\\resources\\JPG\\,0,93,93,93,,,,,,,46.021511500002816,None,1,0.295472499972675,46.021511500002816,None,46.021511500002816,None,test,001,2022-06-22_09h32.54.115,MemoryStudy,2022.1.4,60.18042090603208,
Mem,1,tricycle.jpg,P,P,JPG\,tricycle,C:\\Users\\Psychology\\Documents\\ABExperiment\\MemoryStudy\\resources\\JPG\\tricycle.jpg,C:\\Users\\Psychology\\Documents\\ABExperiment\\MemoryStudy\\resources\\JPG\\,0,94,94,94,,,,,,,46.33861710000201,None,1,0.2664095000072848,46.33861710000201,None,46.33861710000201,None,test,001,2022-06-22_09h32.54.115,MemoryStudy,2022.1.4,60.18042090603208,
Mem,1,rubikcube.jpg,P,P,JPG\,rubikcube,C:\\Users\\Psychology\\Documents\\ABExperiment\\MemoryStudy\\resources\\JPG\\rubikcube.jpg,C:\\Users\\Psychology\\Documents\\ABExperiment\\MemoryStudy\\resources\\JPG\\,0,95,95,95,,,,,,,46.62209520000033,None,1,0.3035251999972388,46.62209520000033,None,46.62209520000033,None,test,001,2022-06-22_09h32.54.115,MemoryStudy,2022.1.4,60.18042090603208,
Mem,1,anchor.jpg,P,P,JPG\,anchor,C:\\Users\\Psychology\\Documents\\ABExperiment\\MemoryStudy\\resources\\JPG\\anchor.jpg,C:\\Users\\Psychology\\Documents\\ABExperiment\\MemoryStudy\\resources\\JPG\\,0,96,96,96,,,,,,,46.955733000009786,None,1,0.2978415999969002,46.955733000009786,None,46.955733000009786,None,test,001,2022-06-22_09h32.54.115,MemoryStudy,2022.1.4,60.18042090603208,
Mem,1,beerbottle.jpg,P,P,JPG\,beerbottle,C:\\Users\\Psychology\\Documents\\ABExperiment\\MemoryStudy\\resources\\JPG\\beerbottle.jpg,C:\\Users\\Psychology\\Documents\\ABExperiment\\MemoryStudy\\resources\\JPG\\,0,97,97,97,,,,,,,47.27273799999966,None,1,0.29401709997910075,47.27273799999966,None,47.27273799999966,None,test,001,2022-06-22_09h32.54.115,MemoryStudy,2022.1.4,60.18042090603208,
Mem,1,bowtie.jpg,P,P,JPG\,bowtie,C:\\Users\\Psychology\\Documents\\ABExperiment\\MemoryStudy\\resources\\JPG\\bowtie.jpg,C:\\Users\\Psychology\\Documents\\ABExperiment\\MemoryStudy\\resources\\JPG\\,0,98,98,98,,,,,,,47.58970680000493,None,1,0.31948469998314977,47.58970680000493,None,47.58970680000493,None,test,001,2022-06-22_09h32.54.115,MemoryStudy,2022.1.4,60.18042090603208,
Mem,1,cannon.jpg,P,P,JPG\,cannon,C:\\Users\\Psychology\\Documents\\ABExperiment\\MemoryStudy\\resources\\JPG\\cannon.jpg,C:\\Users\\Psychology\\Documents\\ABExperiment\\MemoryStudy\\resources\\JPG\\,0,99,99,99,,,,,,,47.94012290000683,None,1,0.6734869999927469,47.94012290000683,None,47.94012290000683,None,test,001,2022-06-22_09h32.54.115,MemoryStudy,2022.1.4,60.18042090603208,
Mem,1,cat.jpg,P,P,JPG\,cat,C:\\Users\\Psychology\\Documents\\ABExperiment\\MemoryStudy\\resources\\JPG\\cat.jpg,C:\\Users\\Psychology\\Documents\\ABExperiment\\MemoryStudy\\resources\\JPG\\,0,100,100,100,,,,,,,48.640683200006606,None,1,0.30109490000177175,48.640683200006606,None,48.640683200006606,None,test,001,2022-06-22_09h32.54.115,MemoryStudy,2022.1.4,60.18042090603208,
Mem,1,chair.jpg,P,P,JPG\,chair,C:\\Users\\Psychology\\Documents\\ABExperiment\\MemoryStudy\\resources\\JPG\\chair.jpg,C:\\Users\\Psychology\\Documents\\ABExperiment\\MemoryStudy\\resources\\JPG\\,0,101,101,101,,,,,,,48.97442610000144,None,1,0.3024634000030346,48.97442610000144,None,48.97442610000144,None,test,001,2022-06-22_09h32.54.115,MemoryStudy,2022.1.4,60.18042090603208,
Mem,1,cross01.jpg,P,P,JPG\,cross01,C:\\Users\\Psychology\\Documents\\ABExperiment\\MemoryStudy\\resources\\JPG\\cross01.jpg,C:\\Users\\Psychology\\Documents\\ABExperiment\\MemoryStudy\\resources\\JPG\\,0,102,102,102,,,,,,,49.30806099998881,None,1,0.2659879999991972,49.30806099998881,None,49.30806099998881,None,test,001,2022-06-22_09h32.54.115,MemoryStudy,2022.1.4,60.18042090603208,
Mem,1,englishcucumber.jpg,P,P,JPG\,englishcucumber,C:\\Users\\Psychology\\Documents\\ABExperiment\\MemoryStudy\\resources\\JPG\\englishcucumber.jpg,C:\\Users\\Psychology\\Documents\\ABExperiment\\MemoryStudy\\resources\\JPG\\,0,103,103,103,,,,,,,49.591816400003154,None,1,0.28531809998094104,49.591816400003154,None,49.591816400003154,None,test,001,2022-06-22_09h32.54.115,MemoryStudy,2022.1.4,60.18042090603208,
Mem,1,frisbee.jpg,P,P,JPG\,frisbee,C:\\Users\\Psychology\\Documents\\ABExperiment\\MemoryStudy\\resources\\JPG\\frisbee.jpg,C:\\Users\\Psychology\\Documents\\ABExperiment\\MemoryStudy\\resources\\JPG\\,0,104,104,104,,,,,,,49.90874109999277,None,1,0.2886927000072319,49.90874109999277,None,49.90874109999277,None,test,001,2022-06-22_09h32.54.115,MemoryStudy,2022.1.4,60.18042090603208,
Mem,1,granolabar01.jpg,P,P,JPG\,granolabar01,C:\\Users\\Psychology\\Documents\\ABExperiment\\MemoryStudy\\resources\\JPG\\granolabar01.jpg,C:\\Users\\Psychology\\Documents\\ABExperiment\\MemoryStudy\\resources\\JPG\\,0,105,105,105,,,,,,,50.22582140000304,None,1,0.2685040000069421,50.22582140000304,None,50.22582140000304,None,test,001,2022-06-22_09h32.54.115,MemoryStudy,2022.1.4,60.18042090603208,
Mem,1,jeans01.jpg,P,P,JPG\,jeans01,C:\\Users\\Psychology\\Documents\\ABExperiment\\MemoryStudy\\resources\\JPG\\jeans01.jpg,C:\\Users\\Psychology\\Documents\\ABExperiment\\MemoryStudy\\resources\\JPG\\,0,106,106,106,,,,,,,50.52893149998272,None,1,0.25236270000459626,50.52893149998272,None,50.52893149998272,None,test,001,2022-06-22_09h32.54.115,MemoryStudy,2022.1.4,60.18042090603208,
Mem,1,jeep.jpg,P,P,JPG\,jeep,C:\\Users\\Psychology\\Documents\\ABExperiment\\MemoryStudy\\resources\\JPG\\jeep.jpg,C:\\Users\\Psychology\\Documents\\ABExperiment\\MemoryStudy\\resources\\JPG\\,0,107,107,107,,,,,,,50.810044699988794,None,1,0.28464150000945665,50.810044699988794,None,50.810044699988794,None,test,001,2022-06-22_09h32.54.115,MemoryStudy,2022.1.4,60.18042090603208,
Mem,1,knee.jpg,P,P,JPG\,knee,C:\\Users\\Psychology\\Documents\\ABExperiment\\MemoryStudy\\resources\\JPG\\knee.jpg,C:\\Users\\Psychology\\Documents\\ABExperiment\\MemoryStudy\\resources\\JPG\\,0,108,108,108,,,,,,,51.12649860000238,None,1,1.3197317000012845,51.12649860000238,None,51.12649860000238,None,test,001,2022-06-22_09h32.54.115,MemoryStudy,2022.1.4,60.18042090603208,
Mem,1,lighthouse.jpg,P,P,JPG\,lighthouse,C:\\Users\\Psychology\\Documents\\ABExperiment\\MemoryStudy\\resources\\JPG\\lighthouse.jpg,C:\\Users\\Psychology\\Documents\\ABExperiment\\MemoryStudy\\resources\\JPG\\,0,109,109,109,,,,,,,52.477924699982395,None,1,0.3753685999836307,52.477924699982395,None,52.477924699982395,None,test,001,2022-06-22_09h32.54.115,MemoryStudy,2022.1.4,60.18042090603208,
Mem,1,lion.jpg,P,P,JPG\,lion,C:\\Users\\Psychology\\Documents\\ABExperiment\\MemoryStudy\\resources\\JPG\\lion.jpg,C:\\Users\\Psychology\\Documents\\ABExperiment\\MemoryStudy\\resources\\JPG\\,0,110,110,110,,,,,,,52.87830139999278,None,1,0.3117809999966994,52.87830139999278,None,52.87830139999278,None,test,001,2022-06-22_09h32.54.115,MemoryStudy,2022.1.4,60.18042090603208,
Mem,1,microphone01.jpg,P,P,JPG\,microphone01,C:\\Users\\Psychology\\Documents\\ABExperiment\\MemoryStudy\\resources\\JPG\\microphone01.jpg,C:\\Users\\Psychology\\Documents\\ABExperiment\\MemoryStudy\\resources\\JPG\\,0,111,111,111,,,,,,,53.21199209999759,None,1,0.3292514999920968,53.21199209999759,None,53.21199209999759,None,test,001,2022-06-22_09h32.54.115,MemoryStudy,2022.1.4,60.18042090603208,
Mem,1,1nose.jpg,P,P,JPG\,1nose,C:\\Users\\Psychology\\Documents\\ABExperiment\\MemoryStudy\\resources\\JPG\\1nose.jpg,C:\\Users\\Psychology\\Documents\\ABExperiment\\MemoryStudy\\resources\\JPG\\,0,112,112,112,,,,,,,53.56225170000107,None,1,0.3712928000022657,53.56225170000107,None,53.56225170000107,None,test,001,2022-06-22_09h32.54.115,MemoryStudy,2022.1.4,60.18042090603208,
Mem,1,ostrich.jpg,P,P,JPG\,ostrich,C:\\Users\\Psychology\\Documents\\ABExperiment\\MemoryStudy\\resources\\JPG\\ostrich.jpg,C:\\Users\\Psychology\\Documents\\ABExperiment\\MemoryStudy\\resources\\JPG\\,0,113,113,113,,,,,,,53.96281510000699,None,1,0.39495579997310415,53.96281510000699,None,53.96281510000699,None,test,001,2022-06-22_09h32.54.115,MemoryStudy,2022.1.4,60.18042090603208,
Mem,1,porcupine.jpg,P,P,JPG\,porcupine,C:\\Users\\Psychology\\Documents\\ABExperiment\\MemoryStudy\\resources\\JPG\\porcupine.jpg,C:\\Users\\Psychology\\Documents\\ABExperiment\\MemoryStudy\\resources\\JPG\\,0,114,114,114,,,,,,,54.38447570000426,None,1,0.34858180000446737,54.38447570000426,None,54.38447570000426,None,test,001,2022-06-22_09h32.54.115,MemoryStudy,2022.1.4,60.18042090603208,
Mem,1,redfox.jpg,P,P,JPG\,redfox,C:\\Users\\Psychology\\Documents\\ABExperiment\\MemoryStudy\\resources\\JPG\\redfox.jpg,C:\\Users\\Psychology\\Documents\\ABExperiment\\MemoryStudy\\resources\\JPG\\,0,115,115,115,,,,,,,54.76697460000287,None,1,0.33399179999832995,54.76697460000287,None,54.76697460000287,None,test,001,2022-06-22_09h32.54.115,MemoryStudy,2022.1.4,60.18042090603208,
Mem,1,seal.jpg,P,P,JPG\,seal,C:\\Users\\Psychology\\Documents\\ABExperiment\\MemoryStudy\\resources\\JPG\\seal.jpg,C:\\Users\\Psychology\\Documents\\ABExperiment\\MemoryStudy\\resources\\JPG\\,0,116,116,116,,,,,,,55.13266040000599,None,1,0.3281820999982301,55.13266040000599,None,55.13266040000599,None,test,001,2022-06-22_09h32.54.115,MemoryStudy,2022.1.4,60.18042090603208,
Mem,1,stool01.jpg,P,P,JPG\,stool01,C:\\Users\\Psychology\\Documents\\ABExperiment\\MemoryStudy\\resources\\JPG\\stool01.jpg,C:\\Users\\Psychology\\Documents\\ABExperiment\\MemoryStudy\\resources\\JPG\\,0,117,117,117,,,,,,,55.48414539999794,None,1,0.3534489999874495,55.48414539999794,None,55.48414539999794,None,test,001,2022-06-22_09h32.54.115,MemoryStudy,2022.1.4,60.18042090603208,
Mem,1,toolbox02.jpg,P,P,JPG\,toolbox02,C:\\Users\\Psychology\\Documents\\ABExperiment\\MemoryStudy\\resources\\JPG\\toolbox02.jpg,C:\\Users\\Psychology\\Documents\\ABExperiment\\MemoryStudy\\resources\\JPG\\,0,118,118,118,,,,,,,55.86440240000957,None,1,0.3024261000100523,55.86440240000957,None,55.86440240000957,None,test,001,2022-06-22_09h32.54.115,MemoryStudy,2022.1.4,60.18042090603208,
Mem,1,treadmill.jpg,P,P,JPG\,treadmill,C:\\Users\\Psychology\\Documents\\ABExperiment\\MemoryStudy\\resources\\JPG\\treadmill.jpg,C:\\Users\\Psychology\\Documents\\ABExperiment\\MemoryStudy\\resources\\JPG\\,0,119,119,119,,,,,,,56.20063390000723,None,1,0.3092563000100199,56.20063390000723,None,56.20063390000723,None,test,001,2022-06-22_09h32.54.115,MemoryStudy,2022.1.4,60.18042090603208,
Mem,1,uprightpiano01.jpg,P,P,JPG\,uprightpiano01,C:\\Users\\Psychology\\Documents\\ABExperiment\\MemoryStudy\\resources\\JPG\\uprightpiano01.jpg,C:\\Users\\Psychology\\Documents\\ABExperiment\\MemoryStudy\\resources\\JPG\\,0,120,120,120,,,,,,,56.53747549999389,None,1,0.3155442999850493,56.53747549999389,None,56.53747549999389,None,test,001,2022-06-22_09h32.54.115,MemoryStudy,2022.1.4,60.18042090603208,
Mem,1,wallclock.jpg,P,P,JPG\,wallclock,C:\\Users\\Psychology\\Documents\\ABExperiment\\MemoryStudy\\resources\\JPG\\wallclock.jpg,C:\\Users\\Psychology\\Documents\\ABExperiment\\MemoryStudy\\resources\\JPG\\,0,121,121,121,,,,,,,56.884050699998625,None,1,0.329040199983865,56.884050699998625,None,56.884050699998625,None,test,001,2022-06-22_09h32.54.115,MemoryStudy,2022.1.4,60.18042090603208,
Mem,1,horseshoe.jpg,P,P,JPG\,horseshoe,C:\\Users\\Psychology\\Documents\\ABExperiment\\MemoryStudy\\resources\\JPG\\horseshoe.jpg,C:\\Users\\Psychology\\Documents\\ABExperiment\\MemoryStudy\\resources\\JPG\\,0,122,122,122,,,,,,,57.235794100008206,None,1,0.32219220002298243,57.235794100008206,None,57.235794100008206,None,test,001,2022-06-22_09h32.54.115,MemoryStudy,2022.1.4,60.18042090603208,
Mem,1,ant.jpg,P,P,JPG\,ant,C:\\Users\\Psychology\\Documents\\ABExperiment\\MemoryStudy\\resources\\JPG\\ant.jpg,C:\\Users\\Psychology\\Documents\\ABExperiment\\MemoryStudy\\resources\\JPG\\,0,123,123,123,,,,,,,57.58294749999186,None,1,0.3351307999982964,57.58294749999186,None,57.58294749999186,None,test,001,2022-06-22_09h32.54.115,MemoryStudy,2022.1.4,60.18042090603208,
Mem,1,barrel01.jpg,P,P,JPG\,barrel01,C:\\Users\\Psychology\\Documents\\ABExperiment\\MemoryStudy\\resources\\JPG\\barrel01.jpg,C:\\Users\\Psychology\\Documents\\ABExperiment\\MemoryStudy\\resources\\JPG\\,0,124,124,124,,,,,,,57.94999349999125,None,1,0.28732339999987744,57.94999349999125,None,57.94999349999125,None,test,001,2022-06-22_09h32.54.115,MemoryStudy,2022.1.4,60.18042090603208,
Mem,1,bull.jpg,P,P,JPG\,bull,C:\\Users\\Psychology\\Documents\\ABExperiment\\MemoryStudy\\resources\\JPG\\bull.jpg,C:\\Users\\Psychology\\Documents\\ABExperiment\\MemoryStudy\\resources\\JPG\\,0,125,125,125,,,,,,,58.26711570000043,None,1,0.2982466999965254,58.26711570000043,None,58.26711570000043,None,test,001,2022-06-22_09h32.54.115,MemoryStudy,2022.1.4,60.18042090603208,
Mem,1,calendar.jpg,P,P,JPG\,calendar,C:\\Users\\Psychology\\Documents\\ABExperiment\\MemoryStudy\\resources\\JPG\\calendar.jpg,C:\\Users\\Psychology\\Documents\\ABExperiment\\MemoryStudy\\resources\\JPG\\,0,126,126,126,,,,,,,58.586963000008836,None,1,0.32238280001911335,58.586963000008836,None,58.586963000008836,None,test,001,2022-06-22_09h32.54.115,MemoryStudy,2022.1.4,60.18042090603208,
Mem,1,chimney.jpg,P,P,JPG\,chimney,C:\\Users\\Psychology\\Documents\\ABExperiment\\MemoryStudy\\resources\\JPG\\chimney.jpg,C:\\Users\\Psychology\\Documents\\ABExperiment\\MemoryStudy\\resources\\JPG\\,0,127,127,127,,,,,,,58.937268499983475,None,1,0.3088477000128478,58.937268499983475,None,58.937268499983475,None,test,001,2022-06-22_09h32.54.115,MemoryStudy,2022.1.4,60.18042090603208,
Mem,1,christmastree.jpg,P,P,JPG\,christmastree,C:\\Users\\Psychology\\Documents\\ABExperiment\\MemoryStudy\\resources\\JPG\\christmastree.jpg,C:\\Users\\Psychology\\Documents\\ABExperiment\\MemoryStudy\\resources\\JPG\\,0,128,128,128,,,,,,,59.28278670000145,None,1,0.29861080000409856,59.28278670000145,None,59.28278670000145,None,test,001,2022-06-22_09h32.54.115,MemoryStudy,2022.1.4,60.18042090603208,
Mem,1,crown.jpg,P,P,JPG\,crown,C:\\Users\\Psychology\\Documents\\ABExperiment\\MemoryStudy\\resources\\JPG\\crown.jpg,C:\\Users\\Psychology\\Documents\\ABExperiment\\MemoryStudy\\resources\\JPG\\,0,129,129,129,,,,,,,59.60187769998447,None,1,0.3158355000196025,59.60187769998447,None,59.60187769998447,None,test,001,2022-06-22_09h32.54.115,MemoryStudy,2022.1.4,60.18042090603208,
Mem,1,curtain.jpg,P,P,JPG\,curtain,C:\\Users\\Psychology\\Documents\\ABExperiment\\MemoryStudy\\resources\\JPG\\curtain.jpg,C:\\Users\\Psychology\\Documents\\ABExperiment\\MemoryStudy\\resources\\JPG\\,0,130,130,130,,,,,,,59.93542480000178,None,1,0.31839749999926426,59.93542480000178,None,59.93542480000178,None,test,001,2022-06-22_09h32.54.115,MemoryStudy,2022.1.4,60.18042090603208,
Mem,1,daddylonglegs.jpg,P,P,JPG\,daddylonglegs,C:\\Users\\Psychology\\Documents\\ABExperiment\\MemoryStudy\\resources\\JPG\\daddylonglegs.jpg,C:\\Users\\Psychology\\Documents\\ABExperiment\\MemoryStudy\\resources\\JPG\\,0,131,131,131,,,,,,,60.28579019999597,None,1,0.3120430000126362,60.28579019999597,None,60.28579019999597,None,test,001,2022-06-22_09h32.54.115,MemoryStudy,2022.1.4,60.18042090603208,
Mem,5,elbow.jpg,P,P,JPG\,elbow,C:\\Users\\Psychology\\Documents\\ABExperiment\\MemoryStudy\\resources\\JPG\\elbow.jpg,C:\\Users\\Psychology\\Documents\\ABExperiment\\MemoryStudy\\resources\\JPG\\,0,132,132,132,,,,,,,60.622488399996655,None,1,0.3034299999999348,60.622488399996655,None,60.622488399996655,None,test,001,2022-06-22_09h32.54.115,MemoryStudy,2022.1.4,60.18042090603208,
Mem,5,fireplace.jpg,P,P,JPG\,fireplace,C:\\Users\\Psychology\\Documents\\ABExperiment\\MemoryStudy\\resources\\JPG\\fireplace.jpg,C:\\Users\\Psychology\\Documents\\ABExperiment\\MemoryStudy\\resources\\JPG\\,0,133,133,133,,,,,,,60.956815299985465,None,1,0.32016510001267307,60.956815299985465,None,60.956815299985465,None,test,001,2022-06-22_09h32.54.115,MemoryStudy,2022.1.4,60.18042090603208,
Mem,5,greywolf.jpg,P,P,JPG\,greywolf,C:\\Users\\Psychology\\Documents\\ABExperiment\\MemoryStudy\\resources\\JPG\\greywolf.jpg,C:\\Users\\Psychology\\Documents\\ABExperiment\\MemoryStudy\\resources\\JPG\\,0,134,134,134,,,,,,,61.30641029999242,None,1,0.31574629998067394,61.30641029999242,None,61.30641029999242,None,test,001,2022-06-22_09h32.54.115,MemoryStudy,2022.1.4,60.18042090603208,
Mem,5,jackrabbit.jpg,P,P,JPG\,jackrabbit,C:\\Users\\Psychology\\Documents\\ABExperiment\\MemoryStudy\\resources\\JPG\\jackrabbit.jpg,C:\\Users\\Psychology\\Documents\\ABExperiment\\MemoryStudy\\resources\\JPG\\,0,135,135,135,,,,,,,61.65372179998667,None,1,0.39145510000525974,61.65372179998667,None,61.65372179998667,None,test,001,2022-06-22_09h32.54.115,MemoryStudy,2022.1.4,60.18042090603208,
Mem,5,jellyfish.jpg,P,P,JPG\,jellyfish,C:\\Users\\Psychology\\Documents\\ABExperiment\\MemoryStudy\\resources\\JPG\\jellyfish.jpg,C:\\Users\\Psychology\\Documents\\ABExperiment\\MemoryStudy\\resources\\JPG\\,0,136,136,136,,,,,,,62.07394929998554,None,1,0.42725929999141954,62.07394929998554,None,62.07394929998554,None,test,001,2022-06-22_09h32.54.115,MemoryStudy,2022.1.4,60.18042090603208,
Mem,5,leafrake.jpg,P,P,JPG\,leafrake,C:\\Users\\Psychology\\Documents\\ABExperiment\\MemoryStudy\\resources\\JPG\\leafrake.jpg,C:\\Users\\Psychology\\Documents\\ABExperiment\\MemoryStudy\\resources\\JPG\\,0,137,137,137,,,,,,,62.52425389998825,None,1,0.36904170000343584,62.52425389998825,None,62.52425389998825,None,test,001,2022-06-22_09h32.54.115,MemoryStudy,2022.1.4,60.18042090603208,
Mem,5,motorcycle.jpg,P,P,JPG\,motorcycle,C:\\Users\\Psychology\\Documents\\ABExperiment\\MemoryStudy\\resources\\JPG\\motorcycle.jpg,C:\\Users\\Psychology\\Documents\\ABExperiment\\MemoryStudy\\resources\\JPG\\,0,138,138,138,,,,,,,62.924528800009284,None,1,0.3461418999941088,62.924528800009284,None,62.924528800009284,None,test,001,2022-06-22_09h32.54.115,MemoryStudy,2022.1.4,60.18042090603208,
Mem,5,mouse.jpg,P,P,JPG\,mouse,C:\\Users\\Psychology\\Documents\\ABExperiment\\MemoryStudy\\resources\\JPG\\mouse.jpg,C:\\Users\\Psychology\\Documents\\ABExperiment\\MemoryStudy\\resources\\JPG\\,0,139,139,139,,,,,,,63.29170070000691,None,1,0.36193199999979697,63.29170070000691,None,63.29170070000691,None,test,001,2022-06-22_09h32.54.115,MemoryStudy,2022.1.4,60.18042090603208,
Mem,5,lip.jpg,P,P,JPG\,lip,C:\\Users\\Psychology\\Documents\\ABExperiment\\MemoryStudy\\resources\\JPG\\lip.jpg,C:\\Users\\Psychology\\Documents\\ABExperiment\\MemoryStudy\\resources\\JPG\\,0,140,140,140,,,,,,,63.67234479999752,None,1,0.3564009999972768,63.67234479999752,None,63.67234479999752,None,test,001,2022-06-22_09h32.54.115,MemoryStudy,2022.1.4,60.18042090603208,
Mem,5,mummy.jpg,P,P,JPG\,mummy,C:\\Users\\Psychology\\Documents\\ABExperiment\\MemoryStudy\\resources\\JPG\\mummy.jpg,C:\\Users\\Psychology\\Documents\\ABExperiment\\MemoryStudy\\resources\\JPG\\,0,141,141,141,,,,,,,64.05911929998547,None,1,0.35471509999479167,64.05911929998547,None,64.05911929998547,None,test,001,2022-06-22_09h32.54.115,MemoryStudy,2022.1.4,60.18042090603208,
Mem,5,saltshaker03a.jpg,P,P,JPG\,saltshaker03a,C:\\Users\\Psychology\\Documents\\ABExperiment\\MemoryStudy\\resources\\JPG\\saltshaker03a.jpg,C:\\Users\\Psychology\\Documents\\ABExperiment\\MemoryStudy\\resources\\JPG\\,0,142,142,142,,,,,,,64.4427480000013,None,1,0.32317210000474006,64.4427480000013,None,64.4427480000013,None,test,001,2022-06-22_09h32.54.115,MemoryStudy,2022.1.4,60.18042090603208,
Mem,5,scorpion.jpg,P,P,JPG\,scorpion,C:\\Users\\Psychology\\Documents\\ABExperiment\\MemoryStudy\\resources\\JPG\\scorpion.jpg,C:\\Users\\Psychology\\Documents\\ABExperiment\\MemoryStudy\\resources\\JPG\\,0,143,143,143,,,,,,,64.7930720000004,None,1,0.3408634999941569,64.7930720000004,None,64.7930720000004,None,test,001,2022-06-22_09h32.54.115,MemoryStudy,2022.1.4,60.18042090603208,
Mem,5,showerhead01.jpg,P,P,JPG\,showerhead01,C:\\Users\\Psychology\\Documents\\ABExperiment\\MemoryStudy\\resources\\JPG\\showerhead01.jpg,C:\\Users\\Psychology\\Documents\\ABExperiment\\MemoryStudy\\resources\\JPG\\,0,144,144,144,,,,,,,65.15726509998785,None,1,0.3119549000111874,65.15726509998785,None,65.15726509998785,None,test,001,2022-06-22_09h32.54.115,MemoryStudy,2022.1.4,60.18042090603208,
Mem,5,floorlamp.jpg,P,P,JPG\,floorlamp,C:\\Users\\Psychology\\Documents\\ABExperiment\\MemoryStudy\\resources\\JPG\\floorlamp.jpg,C:\\Users\\Psychology\\Documents\\ABExperiment\\MemoryStudy\\resources\\JPG\\,0,145,145,145,,,,,,,65.49263990001054,None,1,0.30469150000135414,65.49263990001054,None,65.49263990001054,None,test,001,2022-06-22_09h32.54.115,MemoryStudy,2022.1.4,60.18042090603208,
Mem,5,statue.jpg,P,P,JPG\,statue,C:\\Users\\Psychology\\Documents\\ABExperiment\\MemoryStudy\\resources\\JPG\\statue.jpg,C:\\Users\\Psychology\\Documents\\ABExperiment\\MemoryStudy\\resources\\JPG\\,0,146,146,146,,,,,,,65.8262926999887,None,1,0.32292920001782477,65.8262926999887,None,65.8262926999887,None,test,001,2022-06-22_09h32.54.115,MemoryStudy,2022.1.4,60.18042090603208,
Mem,5,witchhat.jpg,P,P,JPG\,witchhat,C:\\Users\\Psychology\\Documents\\ABExperiment\\MemoryStudy\\resources\\JPG\\witchhat.jpg,C:\\Users\\Psychology\\Documents\\ABExperiment\\MemoryStudy\\resources\\JPG\\,0,147,147,147,,,,,,,66.18970389998867,None,1,0.30333019999670796,66.18970389998867,None,66.18970389998867,None,test,001,2022-06-22_09h32.54.115,MemoryStudy,2022.1.4,60.18042090603208,
Mem,5,cigar.jpg,P,P,JPG\,cigar,C:\\Users\\Psychology\\Documents\\ABExperiment\\MemoryStudy\\resources\\JPG\\cigar.jpg,C:\\Users\\Psychology\\Documents\\ABExperiment\\MemoryStudy\\resources\\JPG\\,0,148,148,148,,,,,,,66.52502460000687,None,1,0.3123216000094544,66.52502460000687,None,66.52502460000687,None,test,001,2022-06-22_09h32.54.115,MemoryStudy,2022.1.4,60.18042090603208,
Mem,5,banjo.jpg,P,P,JPG\,banjo,C:\\Users\\Psychology\\Documents\\ABExperiment\\MemoryStudy\\resources\\JPG\\banjo.jpg,C:\\Users\\Psychology\\Documents\\ABExperiment\\MemoryStudy\\resources\\JPG\\,0,149,149,149,,,,,,,66.86192749999464,None,1,0.3193858999875374,66.86192749999464,None,66.86192749999464,None,test,001,2022-06-22_09h32.54.115,MemoryStudy,2022.1.4,60.18042090603208,
Mem,5,bathtub.jpg,P,P,JPG\,bathtub,C:\\Users\\Psychology\\Documents\\ABExperiment\\MemoryStudy\\resources\\JPG\\bathtub.jpg,C:\\Users\\Psychology\\Documents\\ABExperiment\\MemoryStudy\\resources\\JPG\\,0,150,150,150,,,,,,,67.2123178000038,None,1,0.344869499997003,67.2123178000038,None,67.2123178000038,None,test,001,2022-06-22_09h32.54.115,MemoryStudy,2022.1.4,60.18042090603208,
Mem,5,bumpercar.jpg,P,P,JPG\,bumpercar,C:\\Users\\Psychology\\Documents\\ABExperiment\\MemoryStudy\\resources\\JPG\\bumpercar.jpg,C:\\Users\\Psychology\\Documents\\ABExperiment\\MemoryStudy\\resources\\JPG\\,0,151,151,151,,,,,,,67.57623559999047,None,1,0.3568661000172142,67.57623559999047,None,67.57623559999047,None,test,001,2022-06-22_09h32.54.115,MemoryStudy,2022.1.4,60.18042090603208,
Mem,5,cruiseship.jpg,P,P,JPG\,cruiseship,C:\\Users\\Psychology\\Documents\\ABExperiment\\MemoryStudy\\resources\\JPG\\cruiseship.jpg,C:\\Users\\Psychology\\Documents\\ABExperiment\\MemoryStudy\\resources\\JPG\\,0,152,152,152,,,,,,,67.96000779999304,None,1,0.3182031000033021,67.96000779999304,None,67.96000779999304,None,test,001,2022-06-22_09h32.54.115,MemoryStudy,2022.1.4,60.18042090603208,
Mem,5,downhillski.jpg,P,P,JPG\,downhillski,C:\\Users\\Psychology\\Documents\\ABExperiment\\MemoryStudy\\resources\\JPG\\downhillski.jpg,C:\\Users\\Psychology\\Documents\\ABExperiment\\MemoryStudy\\resources\\JPG\\,0,153,153,153,,,,,,,68.42775709999842,None,1,0.31379389998619445,68.42775709999842,None,68.42775709999842,None,test,001,2022-06-22_09h32.54.115,MemoryStudy,2022.1.4,60.18042090603208,
Mem,5,ear.jpg,P,P,JPG\,ear,C:\\Users\\Psychology\\Documents\\ABExperiment\\MemoryStudy\\resources\\JPG\\ear.jpg,C:\\Users\\Psychology\\Documents\\ABExperiment\\MemoryStudy\\resources\\JPG\\,0,154,154,154,,,,,,,68.76568969999789,None,1,0.3138835999998264,68.76568969999789,None,68.76568969999789,None,test,001,2022-06-22_09h32.54.115,MemoryStudy,2022.1.4,60.18042090603208,
Mem,5,eyepatch.jpg,P,P,JPG\,eyepatch,C:\\Users\\Psychology\\Documents\\ABExperiment\\MemoryStudy\\resources\\JPG\\eyepatch.jpg,C:\\Users\\Psychology\\Documents\\ABExperiment\\MemoryStudy\\resources\\JPG\\,0,155,155,155,,,,,,,69.11262559998431,None,1,0.32429119999869727,69.11262559998431,None,69.11262559998431,None,test,001,2022-06-22_09h32.54.115,MemoryStudy,2022.1.4,60.18042090603208,
Mem,5,funnel.jpg,P,P,JPG\,funnel,C:\\Users\\Psychology\\Documents\\ABExperiment\\MemoryStudy\\resources\\JPG\\funnel.jpg,C:\\Users\\Psychology\\Documents\\ABExperiment\\MemoryStudy\\resources\\JPG\\,0,156,156,156,,,,,,,69.46570319999591,None,1,0.2990237000049092,69.46570319999591,None,69.46570319999591,None,test,001,2022-06-22_09h32.54.115,MemoryStudy,2022.1.4,60.18042090603208,
Mem,5,hockeypuck.jpg,P,P,JPG\,hockeypuck,C:\\Users\\Psychology\\Documents\\ABExperiment\\MemoryStudy\\resources\\JPG\\hockeypuck.jpg,C:\\Users\\Psychology\\Documents\\ABExperiment\\MemoryStudy\\resources\\JPG\\,0,157,157,157,,,,,,,69.7970750000095,None,1,0.3046452999988105,69.7970750000095,None,69.7970750000095,None,test,001,2022-06-22_09h32.54.115,MemoryStudy,2022.1.4,60.18042090603208,
Mem,5,kiwi03.jpg,P,P,JPG\,kiwi03,C:\\Users\\Psychology\\Documents\\ABExperiment\\MemoryStudy\\resources\\JPG\\kiwi03.jpg,C:\\Users\\Psychology\\Documents\\ABExperiment\\MemoryStudy\\resources\\JPG\\,0,158,158,158,,,,,,,70.13099129998591,None,1,0.2977960999996867,70.13099129998591,None,70.13099129998591,None,test,001,2022-06-22_09h32.54.115,MemoryStudy,2022.1.4,60.18042090603208,
Mem,5,lollipop04.jpg,P,P,JPG\,lollipop04,C:\\Users\\Psychology\\Documents\\ABExperiment\\MemoryStudy\\resources\\JPG\\lollipop04.jpg,C:\\Users\\Psychology\\Documents\\ABExperiment\\MemoryStudy\\resources\\JPG\\,0,159,159,159,,,,,,,70.46059370000148,None,1,0.336282400006894,70.46059370000148,None,70.46059370000148,None,test,001,2022-06-22_09h32.54.115,MemoryStudy,2022.1.4,60.18042090603208,
Mem,5,postalmailbox01.jpg,P,P,JPG\,postalmailbox01,C:\\Users\\Psychology\\Documents\\ABExperiment\\MemoryStudy\\resources\\JPG\\postalmailbox01.jpg,C:\\Users\\Psychology\\Documents\\ABExperiment\\MemoryStudy\\resources\\JPG\\,0,160,160,160,,,,,,,70.91220309998607,None,1,0.2212866000190843,70.91220309998607,None,70.91220309998607,None,test,001,2022-06-22_09h32.54.115,MemoryStudy,2022.1.4,60.18042090603208,
Mem,5,parachute.jpg,P,P,JPG\,parachute,C:\\Users\\Psychology\\Documents\\ABExperiment\\MemoryStudy\\resources\\JPG\\parachute.jpg,C:\\Users\\Psychology\\Documents\\ABExperiment\\MemoryStudy\\resources\\JPG\\,0,161,161,161,,,,,,,71.17045340000186,None,1,0.3070609000278637,71.17045340000186,None,71.17045340000186,None,test,001,2022-06-22_09h32.54.115,MemoryStudy,2022.1.4,60.18042090603208,
Mem,5,rockbass.jpg,P,P,JPG\,rockbass,C:\\Users\\Psychology\\Documents\\ABExperiment\\MemoryStudy\\resources\\JPG\\rockbass.jpg,C:\\Users\\Psychology\\Documents\\ABExperiment\\MemoryStudy\\resources\\JPG\\,0,162,162,162,,,,,,,71.57649169999058,None,1,0.25313959998311475,71.57649169999058,None,71.57649169999058,None,test,001,2022-06-22_09h32.54.115,MemoryStudy,2022.1.4,60.18042090603208,
Mem,5,rollerblade.jpg,P,P,JPG\,rollerblade,C:\\Users\\Psychology\\Documents\\ABExperiment\\MemoryStudy\\resources\\JPG\\rollerblade.jpg,C:\\Users\\Psychology\\Documents\\ABExperiment\\MemoryStudy\\resources\\JPG\\,0,163,163,163,,,,,,,71.84922949998872,None,1,0.3163152000051923,71.84922949998872,None,71.84922949998872,None,test,001,2022-06-22_09h32.54.115,MemoryStudy,2022.1.4,60.18042090603208,
Mem,5,saxophone.jpg,P,P,JPG\,saxophone,C:\\Users\\Psychology\\Documents\\ABExperiment\\MemoryStudy\\resources\\JPG\\saxophone.jpg,C:\\Users\\Psychology\\Documents\\ABExperiment\\MemoryStudy\\resources\\JPG\\,0,164,164,164,,,,,,,72.19940769998357,None,1,0.3093978999822866,72.19940769998357,None,72.19940769998357,None,test,001,2022-06-22_09h32.54.115,MemoryStudy,2022.1.4,60.18042090603208,
Mem,5,scooter.jpg,P,P,JPG\,scooter,C:\\Users\\Psychology\\Documents\\ABExperiment\\MemoryStudy\\resources\\JPG\\scooter.jpg,C:\\Users\\Psychology\\Documents\\ABExperiment\\MemoryStudy\\resources\\JPG\\,0,165,165,165,,,,,,,72.53122499998426,None,1,0.29848180001135916,72.53122499998426,None,72.53122499998426,None,test,001,2022-06-22_09h32.54.115,MemoryStudy,2022.1.4,60.18042090603208,
Mem,5,stepladder.jpg,P,P,JPG\,stepladder,C:\\Users\\Psychology\\Documents\\ABExperiment\\MemoryStudy\\resources\\JPG\\stepladder.jpg,C:\\Users\\Psychology\\Documents\\ABExperiment\\MemoryStudy\\resources\\JPG\\,0,166,166,166,,,,,,,72.92875540000387,None,1,0.26876949999132194,72.92875540000387,None,72.92875540000387,None,test,001,2022-06-22_09h32.54.115,MemoryStudy,2022.1.4,60.18042090603208,
Mem,5,licenseplate.jpg,P,P,JPG\,licenseplate,C:\\Users\\Psychology\\Documents\\ABExperiment\\MemoryStudy\\resources\\JPG\\licenseplate.jpg,C:\\Users\\Psychology\\Documents\\ABExperiment\\MemoryStudy\\resources\\JPG\\,0,167,167,167,,,,,,,73.21781070000725,None,1,0.29222149998531677,73.21781070000725,None,73.21781070000725,None,test,001,2022-06-22_09h32.54.115,MemoryStudy,2022.1.4,60.18042090603208,
Mem,5,shower.jpg,P,P,JPG\,shower,C:\\Users\\Psychology\\Documents\\ABExperiment\\MemoryStudy\\resources\\JPG\\shower.jpg,C:\\Users\\Psychology\\Documents\\ABExperiment\\MemoryStudy\\resources\\JPG\\,0,168,168,168,,,,,,,73.53671329998178,None,1,0.30017010000301525,73.53671329998178,None,73.53671329998178,None,test,001,2022-06-22_09h32.54.115,MemoryStudy,2022.1.4,60.18042090603208,
Mem,5,stubbywrench01a.jpg,P,P,JPG\,stubbywrench01a,C:\\Users\\Psychology\\Documents\\ABExperiment\\MemoryStudy\\resources\\JPG\\stubbywrench01a.jpg,C:\\Users\\Psychology\\Documents\\ABExperiment\\MemoryStudy\\resources\\JPG\\,0,169,169,169,,,,,,,73.8682550000085,None,1,0.312551099981647,73.8682550000085,None,73.8682550000085,None,test,001,2022-06-22_09h32.54.115,MemoryStudy,2022.1.4,60.18042090603208,
Mem,5,baseballbat.jpg,P,P,JPG\,baseballbat,C:\\Users\\Psychology\\Documents\\ABExperiment\\MemoryStudy\\resources\\JPG\\baseballbat.jpg,C:\\Users\\Psychology\\Documents\\ABExperiment\\MemoryStudy\\resources\\JPG\\,0,170,170,170,,,,,,,74.20153170000413,None,1,0.33301629999186844,74.20153170000413,None,74.20153170000413,None,test,001,2022-06-22_09h32.54.115,MemoryStudy,2022.1.4,60.18042090603208,
Mem,5,bed.jpg,P,P,JPG\,bed,C:\\Users\\Psychology\\Documents\\ABExperiment\\MemoryStudy\\resources\\JPG\\bed.jpg,C:\\Users\\Psychology\\Documents\\ABExperiment\\MemoryStudy\\resources\\JPG\\,0,171,171,171,,,,,,,74.5704746999836,None,1,0.29112340000574477,74.5704746999836,None,74.5704746999836,None,test,001,2022-06-22_09h32.54.115,MemoryStudy,2022.1.4,60.18042090603208,
Mem,5,foldingchair.jpg,P,P,JPG\,foldingchair,C:\\Users\\Psychology\\Documents\\ABExperiment\\MemoryStudy\\resources\\JPG\\foldingchair.jpg,C:\\Users\\Psychology\\Documents\\ABExperiment\\MemoryStudy\\resources\\JPG\\,0,172,172,172,,,,,,,74.88585829999647,None,1,0.30354709998937324,74.88585829999647,None,74.88585829999647,None,test,001,2022-06-22_09h32.54.115,MemoryStudy,2022.1.4,60.18042090603208,
Mem,5,butterfly.jpg,P,P,JPG\,butterfly,C:\\Users\\Psychology\\Documents\\ABExperiment\\MemoryStudy\\resources\\JPG\\butterfly.jpg,C:\\Users\\Psychology\\Documents\\ABExperiment\\MemoryStudy\\resources\\JPG\\,0,173,173,173,,,,,,,75.21950680000009,None,1,0.2902780000003986,75.21950680000009,None,75.21950680000009,None,test,001,2022-06-22_09h32.54.115,MemoryStudy,2022.1.4,60.18042090603208,
Mem,5,car.jpg,P,P,JPG\,car,C:\\Users\\Psychology\\Documents\\ABExperiment\\MemoryStudy\\resources\\JPG\\car.jpg,C:\\Users\\Psychology\\Documents\\ABExperiment\\MemoryStudy\\resources\\JPG\\,0,174,174,174,,,,,,,75.5363160999841,None,1,0.30059780000010505,75.5363160999841,None,75.5363160999841,None,test,001,2022-06-22_09h32.54.115,MemoryStudy,2022.1.4,60.18042090603208,
Mem,5,chefshat.jpg,P,P,JPG\,chefshat,C:\\Users\\Psychology\\Documents\\ABExperiment\\MemoryStudy\\resources\\JPG\\chefshat.jpg,C:\\Users\\Psychology\\Documents\\ABExperiment\\MemoryStudy\\resources\\JPG\\,0,175,175,175,,,,,,,75.87145549998968,None,1,0.2934763999946881,75.87145549998968,None,75.87145549998968,None,test,001,2022-06-22_09h32.54.115,MemoryStudy,2022.1.4,60.18042090603208,
Mem,5,church.jpg,P,P,JPG\,church,C:\\Users\\Psychology\\Documents\\ABExperiment\\MemoryStudy\\resources\\JPG\\church.jpg,C:\\Users\\Psychology\\Documents\\ABExperiment\\MemoryStudy\\resources\\JPG\\,0,176,176,176,,,,,,,76.18742929998552,None,1,0.30544860000372864,76.18742929998552,None,76.18742929998552,None,test,001,2022-06-22_09h32.54.115,MemoryStudy,2022.1.4,60.18042090603208,
Mem,5,duck01.jpg,P,P,JPG\,duck01,C:\\Users\\Psychology\\Documents\\ABExperiment\\MemoryStudy\\resources\\JPG\\duck01.jpg,C:\\Users\\Psychology\\Documents\\ABExperiment\\MemoryStudy\\resources\\JPG\\,0,177,177,177,,,,,,,76.52147259999765,None,1,0.29165450000436977,76.52147259999765,None,76.52147259999765,None,test,001,2022-06-22_09h32.54.115,MemoryStudy,2022.1.4,60.18042090603208,
Mem,5,hand01b.jpg,P,P,JPG\,hand01b,C:\\Users\\Psychology\\Documents\\ABExperiment\\MemoryStudy\\resources\\JPG\\hand01b.jpg,C:\\Users\\Psychology\\Documents\\ABExperiment\\MemoryStudy\\resources\\JPG\\,0,178,178,178,,,,,,,76.83774489999632,None,1,0.2952449999866076,76.83774489999632,None,76.83774489999632,None,test,001,2022-06-22_09h32.54.115,MemoryStudy,2022.1.4,60.18042090603208,
Mem,5,hibiscusflower02.jpg,P,P,JPG\,hibiscusflower02,C:\\Users\\Psychology\\Documents\\ABExperiment\\MemoryStudy\\resources\\JPG\\hibiscusflower02.jpg,C:\\Users\\Psychology\\Documents\\ABExperiment\\MemoryStudy\\resources\\JPG\\,0,179,179,179,,,,,,,77.23756079998566,None,1,0.3193015000142623,77.23756079998566,None,77.23756079998566,None,test,001,2022-06-22_09h32.54.115,MemoryStudy,2022.1.4,60.18042090603208,
Mem,5,holdfast.jpg,P,P,JPG\,holdfast,C:\\Users\\Psychology\\Documents\\ABExperiment\\MemoryStudy\\resources\\JPG\\holdfast.jpg,C:\\Users\\Psychology\\Documents\\ABExperiment\\MemoryStudy\\resources\\JPG\\,0,180,180,180,,,,,,,77.5889138999919,None,1,0.28817449999041855,77.5889138999919,None,77.5889138999919,None,test,001,2022-06-22_09h32.54.115,MemoryStudy,2022.1.4,60.18042090603208,
Mem,5,lily.jpg,P,P,JPG\,lily,C:\\Users\\Psychology\\Documents\\ABExperiment\\MemoryStudy\\resources\\JPG\\lily.jpg,C:\\Users\\Psychology\\Documents\\ABExperiment\\MemoryStudy\\resources\\JPG\\,0,181,181,181,,,,,,,77.9058367999969,None,1,0.29915119998622686,77.9058367999969,None,77.9058367999969,None,test,001,2022-06-22_09h32.54.115,MemoryStudy,2022.1.4,60.18042090603208,
Mem,5,makiroll.jpg,P,P,JPG\,makiroll,C:\\Users\\Psychology\\Documents\\ABExperiment\\MemoryStudy\\resources\\JPG\\makiroll.jpg,C:\\Users\\Psychology\\Documents\\ABExperiment\\MemoryStudy\\resources\\JPG\\,0,182,182,182,,,,,,,78.23935349998646,None,1,0.2697331999952439,78.23935349998646,None,78.23935349998646,None,test,001,2022-06-22_09h32.54.115,MemoryStudy,2022.1.4,60.18042090603208,
Mem,5,microwave.jpg,P,P,JPG\,microwave,C:\\Users\\Psychology\\Documents\\ABExperiment\\MemoryStudy\\resources\\JPG\\microwave.jpg,C:\\Users\\Psychology\\Documents\\ABExperiment\\MemoryStudy\\resources\\JPG\\,0,183,183,183,,,,,,,78.53979609999806,None,1,0.2901836999808438,78.53979609999806,None,78.53979609999806,None,test,001,2022-06-22_09h32.54.115,MemoryStudy,2022.1.4,60.18042090603208,
Mem,5,penguin.jpg,P,P,JPG\,penguin,C:\\Users\\Psychology\\Documents\\ABExperiment\\MemoryStudy\\resources\\JPG\\penguin.jpg,C:\\Users\\Psychology\\Documents\\ABExperiment\\MemoryStudy\\resources\\JPG\\,0,184,184,184,,,,,,,78.85950910000247,None,1,0.28928799999994226,78.85950910000247,None,78.85950910000247,None,test,001,2022-06-22_09h32.54.115,MemoryStudy,2022.1.4,60.18042090603208,
Mem,5,smokingpipe.jpg,P,P,JPG\,smokingpipe,C:\\Users\\Psychology\\Documents\\ABExperiment\\MemoryStudy\\resources\\JPG\\smokingpipe.jpg,C:\\Users\\Psychology\\Documents\\ABExperiment\\MemoryStudy\\resources\\JPG\\,0,185,185,185,,,,,,,79.17401600000449,None,1,0.30366020000656135,79.17401600000449,None,79.17401600000449,None,test,001,2022-06-22_09h32.54.115,MemoryStudy,2022.1.4,60.18042090603208,
Mem,5,shovel01.jpg,P,P,JPG\,shovel01,C:\\Users\\Psychology\\Documents\\ABExperiment\\MemoryStudy\\resources\\JPG\\shovel01.jpg,C:\\Users\\Psychology\\Documents\\ABExperiment\\MemoryStudy\\resources\\JPG\\,0,186,186,186,,,,,,,79.50961439998355,None,1,0.26493880001362413,79.50961439998355,None,79.50961439998355,None,test,001,2022-06-22_09h32.54.115,MemoryStudy,2022.1.4,60.18042090603208,
Mem,5,spicerack.jpg,P,P,JPG\,spicerack,C:\\Users\\Psychology\\Documents\\ABExperiment\\MemoryStudy\\resources\\JPG\\spicerack.jpg,C:\\Users\\Psychology\\Documents\\ABExperiment\\MemoryStudy\\resources\\JPG\\,0,187,187,187,,,,,,,79.82194930000696,None,1,0.2555092000111472,79.82194930000696,None,79.82194930000696,None,test,001,2022-06-22_09h32.54.115,MemoryStudy,2022.1.4,60.18042090603208,
Mem,5,athleticsock.jpg,P,P,JPG\,athleticsock,C:\\Users\\Psychology\\Documents\\ABExperiment\\MemoryStudy\\resources\\JPG\\athleticsock.jpg,C:\\Users\\Psychology\\Documents\\ABExperiment\\MemoryStudy\\resources\\JPG\\,0,188,188,188,,,,,,,80.10904360000859,None,1,0.2723501999862492,80.10904360000859,None,80.10904360000859,None,test,001,2022-06-22_09h32.54.115,MemoryStudy,2022.1.4,60.18042090603208,
Mem,5,surfboard.jpg,P,P,JPG\,surfboard,C:\\Users\\Psychology\\Documents\\ABExperiment\\MemoryStudy\\resources\\JPG\\surfboard.jpg,C:\\Users\\Psychology\\Documents\\ABExperiment\\MemoryStudy\\resources\\JPG\\,0,189,189,189,,,,,,,80.41229290000047,None,1,0.27342030001454987,80.41229290000047,None,80.41229290000047,None,test,001,2022-06-22_09h32.54.115,MemoryStudy,2022.1.4,60.18042090603208,
Mem,5,sword01.jpg,P,P,JPG\,sword01,C:\\Users\\Psychology\\Documents\\ABExperiment\\MemoryStudy\\resources\\JPG\\sword01.jpg,C:\\Users\\Psychology\\Documents\\ABExperiment\\MemoryStudy\\resources\\JPG\\,0,190,190,190,,,,,,,80.70872890000464,None,1,0.25708239999949,80.70872890000464,None,80.70872890000464,None,test,001,2022-06-22_09h32.54.115,MemoryStudy,2022.1.4,60.18042090603208,
Mem,5,table01.jpg,P,P,JPG\,table01,C:\\Users\\Psychology\\Documents\\ABExperiment\\MemoryStudy\\resources\\JPG\\table01.jpg,C:\\Users\\Psychology\\Documents\\ABExperiment\\MemoryStudy\\resources\\JPG\\,0,191,191,191,,,,,,,80.99436159999459,None,1,0.27462979999836534,80.99436159999459,None,80.99436159999459,None,test,001,2022-06-22_09h32.54.115,MemoryStudy,2022.1.4,60.18042090603208,
Mem,5,trumpet.jpg,P,P,JPG\,trumpet,C:\\Users\\Psychology\\Documents\\ABExperiment\\MemoryStudy\\resources\\JPG\\trumpet.jpg,C:\\Users\\Psychology\\Documents\\ABExperiment\\MemoryStudy\\resources\\JPG\\,0,192,192,192,,,,,,,81.29525369999465,None,1,0.2855367999873124,81.29525369999465,None,81.29525369999465,None,test,001,2022-06-22_09h32.54.115,MemoryStudy,2022.1.4,60.18042090603208,
Mem,5,marble.jpg,P,P,JPG\,marble,C:\\Users\\Psychology\\Documents\\ABExperiment\\MemoryStudy\\resources\\JPG\\marble.jpg,C:\\Users\\Psychology\\Documents\\ABExperiment\\MemoryStudy\\resources\\JPG\\,0,193,193,193,,,,,,,81.61220319999848,None,1,0.2734229000052437,81.61220319999848,None,81.61220319999848,None,test,001,2022-06-22_09h32.54.115,MemoryStudy,2022.1.4,60.18042090603208,
Mem,5,callbell.jpg,P,P,JPG\,callbell,C:\\Users\\Psychology\\Documents\\ABExperiment\\MemoryStudy\\resources\\JPG\\callbell.jpg,C:\\Users\\Psychology\\Documents\\ABExperiment\\MemoryStudy\\resources\\JPG\\,0,194,194,194,,,,,,,81.91082059999462,None,1,0.270829799992498,81.91082059999462,None,81.91082059999462,None,test,001,2022-06-22_09h32.54.115,MemoryStudy,2022.1.4,60.18042090603208,
Mem,5,footballhelmet.jpg,P,P,JPG\,footballhelmet,C:\\Users\\Psychology\\Documents\\ABExperiment\\MemoryStudy\\resources\\JPG\\footballhelmet.jpg,C:\\Users\\Psychology\\Documents\\ABExperiment\\MemoryStudy\\resources\\JPG\\,0,195,195,195,,,,,,,82.21011039998848,None,1,0.28263419997529127,82.21011039998848,None,82.21011039998848,None,test,001,2022-06-22_09h32.54.115,MemoryStudy,2022.1.4,60.18042090603208,
Mem,5,honeybee.jpg,P,P,JPG\,honeybee,C:\\Users\\Psychology\\Documents\\ABExperiment\\MemoryStudy\\resources\\JPG\\honeybee.jpg,C:\\Users\\Psychology\\Documents\\ABExperiment\\MemoryStudy\\resources\\JPG\\,0,196,196,196,,,,,,,82.52703959998325,None,1,0.2619921999867074,82.52703959998325,None,82.52703959998325,None,test,001,2022-06-22_09h32.54.115,MemoryStudy,2022.1.4,60.18042090603208,
Mem,5,ipad02.jpg,P,P,JPG\,ipad02,C:\\Users\\Psychology\\Documents\\ABExperiment\\MemoryStudy\\resources\\JPG\\ipad02.jpg,C:\\Users\\Psychology\\Documents\\ABExperiment\\MemoryStudy\\resources\\JPG\\,0,197,197,197,,,,,,,82.81089110000175,None,1,0.2978716000216082,82.81089110000175,None,82.81089110000175,None,test,001,2022-06-22_09h32.54.115,MemoryStudy,2022.1.4,60.18042090603208,
Mem,5,pigeon.jpg,P,P,JPG\,pigeon,C:\\Users\\Psychology\\Documents\\ABExperiment\\MemoryStudy\\resources\\JPG\\pigeon.jpg,C:\\Users\\Psychology\\Documents\\ABExperiment\\MemoryStudy\\resources\\JPG\\,0,198,198,198,,,,,,,83.14407320000464,None,1,0.32594159999280237,83.14407320000464,None,83.14407320000464,None,test,001,2022-06-22_09h32.54.115,MemoryStudy,2022.1.4,60.18042090603208,
Mem,5,pingpongtable.jpg,P,P,JPG\,pingpongtable,C:\\Users\\Psychology\\Documents\\ABExperiment\\MemoryStudy\\resources\\JPG\\pingpongtable.jpg,C:\\Users\\Psychology\\Documents\\ABExperiment\\MemoryStudy\\resources\\JPG\\,0,199,199,199,,,,,,,83.49784450000152,None,1,1.707774500013329,83.49784450000152,None,83.49784450000152,None,test,001,2022-06-22_09h32.54.115,MemoryStudy,2022.1.4,60.18042090603208,
Mem,5,flamingo.jpg,P,P,JPG\,flamingo,C:\\Users\\Psychology\\Documents\\ABExperiment\\MemoryStudy\\resources\\JPG\\flamingo.jpg,C:\\Users\\Psychology\\Documents\\ABExperiment\\MemoryStudy\\resources\\JPG\\,0,200,200,200,,,,,,,85.23251440000604,None,1,0.30890350000117905,85.23251440000604,None,85.23251440000604,None,test,001,2022-06-22_09h32.54.115,MemoryStudy,2022.1.4,60.18042090603208,
Mem,5,pokerchips.jpg,P,P,JPG\,pokerchips,C:\\Users\\Psychology\\Documents\\ABExperiment\\MemoryStudy\\resources\\JPG\\pokerchips.jpg,C:\\Users\\Psychology\\Documents\\ABExperiment\\MemoryStudy\\resources\\JPG\\,0,201,201,201,,,,,,,85.56440129998373,None,1,0.2489136999938637,85.56440129998373,None,85.56440129998373,None,test,001,2022-06-22_09h32.54.115,MemoryStudy,2022.1.4,60.18042090603208,
Mem,5,popcorn.jpg,P,P,JPG\,popcorn,C:\\Users\\Psychology\\Documents\\ABExperiment\\MemoryStudy\\resources\\JPG\\popcorn.jpg,C:\\Users\\Psychology\\Documents\\ABExperiment\\MemoryStudy\\resources\\JPG\\,0,202,202,202,,,,,,,85.84686759999022,None,1,0.2704033000045456,85.84686759999022,None,85.84686759999022,None,test,001,2022-06-22_09h32.54.115,MemoryStudy,2022.1.4,60.18042090603208,
Mem,5,punchingbag.jpg,P,P,JPG\,punchingbag,C:\\Users\\Psychology\\Documents\\ABExperiment\\MemoryStudy\\resources\\JPG\\punchingbag.jpg,C:\\Users\\Psychology\\Documents\\ABExperiment\\MemoryStudy\\resources\\JPG\\,0,203,203,203,,,,,,,86.14992739999434,None,1,0.28736089999438263,86.14992739999434,None,86.14992739999434,None,test,001,2022-06-22_09h32.54.115,MemoryStudy,2022.1.4,60.18042090603208,
Mem,5,recyclingbin.jpg,P,P,JPG\,recyclingbin,C:\\Users\\Psychology\\Documents\\ABExperiment\\MemoryStudy\\resources\\JPG\\recyclingbin.jpg,C:\\Users\\Psychology\\Documents\\ABExperiment\\MemoryStudy\\resources\\JPG\\,0,204,204,204,,,,,,,86.46816869999748,None,1,0.2650183000077959,86.46816869999748,None,86.46816869999748,None,test,001,2022-06-22_09h32.54.115,MemoryStudy,2022.1.4,60.18042090603208,
Mem,5,rose.jpg,P,P,JPG\,rose,C:\\Users\\Psychology\\Documents\\ABExperiment\\MemoryStudy\\resources\\JPG\\rose.jpg,C:\\Users\\Psychology\\Documents\\ABExperiment\\MemoryStudy\\resources\\JPG\\,0,205,205,205,,,,,,,86.7768100000103,None,1,0.2602902000071481,86.7768100000103,None,86.7768100000103,None,test,001,2022-06-22_09h32.54.115,MemoryStudy,2022.1.4,60.18042090603208,
Mem,5,safe.jpg,P,P,JPG\,safe,C:\\Users\\Psychology\\Documents\\ABExperiment\\MemoryStudy\\resources\\JPG\\safe.jpg,C:\\Users\\Psychology\\Documents\\ABExperiment\\MemoryStudy\\resources\\JPG\\,0,206,206,206,,,,,,,87.06450269999914,None,1,0.2616863999865018,87.06450269999914,None,87.06450269999914,None,test,001,2022-06-22_09h32.54.115,MemoryStudy,2022.1.4,60.18042090603208,
Mem,99,pencil01.jpg,Z,Z,JPG\,pencil01,C:\\Users\\Psychology\\Documents\\ABExperiment\\MemoryStudy\\resources\\JPG\\pencil01.jpg,C:\\Users\\Psychology\\Documents\\ABExperiment\\MemoryStudy\\resources\\JPG\\,0,207,207,207,,,,,,,87.44534919998841,None,1,0.19170490000396967,87.44534919998841,None,87.44534919998841,None,test,001,2022-06-22_09h32.54.115,MemoryStudy,2022.1.4,60.18042090603208,
Mem,99,foosballtable.jpg,Z,Z,JPG\,foosballtable,C:\\Users\\Psychology\\Documents\\ABExperiment\\MemoryStudy\\resources\\JPG\\foosballtable.jpg,C:\\Users\\Psychology\\Documents\\ABExperiment\\MemoryStudy\\resources\\JPG\\,0,208,208,208,,,,,,,87.67308849998517,None,1,0.2596559999801684,87.67308849998517,None,87.67308849998517,None,test,001,2022-06-22_09h32.54.115,MemoryStudy,2022.1.4,60.18042090603208,
Mem,99,banana01.jpg,Z,Z,JPG\,banana01,C:\\Users\\Psychology\\Documents\\ABExperiment\\MemoryStudy\\resources\\JPG\\banana01.jpg,C:\\Users\\Psychology\\Documents\\ABExperiment\\MemoryStudy\\resources\\JPG\\,0,209,209,209,,,,,,,88.06157069999608,None,1,0.21567350000259466,88.06157069999608,None,88.06157069999608,None,test,001,2022-06-22_09h32.54.115,MemoryStudy,2022.1.4,60.18042090603208,
Mem,99,lipstick02a.jpg,Z,Z,JPG\,lipstick02a,C:\\Users\\Psychology\\Documents\\ABExperiment\\MemoryStudy\\resources\\JPG\\lipstick02a.jpg,C:\\Users\\Psychology\\Documents\\ABExperiment\\MemoryStudy\\resources\\JPG\\,0,210,210,210,,,,,,,88.39217939999071,None,1,0.21318439999595284,88.39217939999071,None,88.39217939999071,None,test,001,2022-06-22_09h32.54.115,MemoryStudy,2022.1.4,60.18042090603208,
Mem,99,toaster01.jpg,Z,Z,JPG\,toaster01,C:\\Users\\Psychology\\Documents\\ABExperiment\\MemoryStudy\\resources\\JPG\\toaster01.jpg,C:\\Users\\Psychology\\Documents\\ABExperiment\\MemoryStudy\\resources\\JPG\\,0,211,211,211,,,,,,,88.73795229999814,None,1,0.1946962999936659,88.73795229999814,None,88.73795229999814,None,test,001,2022-06-22_09h32.54.115,MemoryStudy,2022.1.4,60.18042090603208,
Mem,99,grape01.jpg,Z,Z,JPG\,grape01,C:\\Users\\Psychology\\Documents\\ABExperiment\\MemoryStudy\\resources\\JPG\\grape01.jpg,C:\\Users\\Psychology\\Documents\\ABExperiment\\MemoryStudy\\resources\\JPG\\,0,212,212,212,,,,,,,89.05232230000547,None,1,0.23306510000838898,89.05232230000547,None,89.05232230000547,None,test,001,2022-06-22_09h32.54.115,MemoryStudy,2022.1.4,60.18042090603208,
Mem,99,key01.jpg,Z,Z,JPG\,key01,C:\\Users\\Psychology\\Documents\\ABExperiment\\MemoryStudy\\resources\\JPG\\key01.jpg,C:\\Users\\Psychology\\Documents\\ABExperiment\\MemoryStudy\\resources\\JPG\\,0,213,213,213,,,,,,,89.42603000000236,None,1,0.22716599999694154,89.42603000000236,None,89.42603000000236,None,test,001,2022-06-22_09h32.54.115,MemoryStudy,2022.1.4,60.18042090603208,
Mem,99,cellphone.jpg,Z,Z,JPG\,cellphone,C:\\Users\\Psychology\\Documents\\ABExperiment\\MemoryStudy\\resources\\JPG\\cellphone.jpg,C:\\Users\\Psychology\\Documents\\ABExperiment\\MemoryStudy\\resources\\JPG\\,0,214,214,214,,,,,,,89.78635419998318,None,1,0.21911120001459494,89.78635419998318,None,89.78635419998318,None,test,001,2022-06-22_09h32.54.115,MemoryStudy,2022.1.4,60.18042090603208,
Mem,99,screwdriver04b.jpg,Z,Z,JPG\,screwdriver04b,C:\\Users\\Psychology\\Documents\\ABExperiment\\MemoryStudy\\resources\\JPG\\screwdriver04b.jpg,C:\\Users\\Psychology\\Documents\\ABExperiment\\MemoryStudy\\resources\\JPG\\,0,215,215,215,,,,,,,90.1225989999948,None,1,0.23470159998396412,90.1225989999948,None,90.1225989999948,None,test,001,2022-06-22_09h32.54.115,MemoryStudy,2022.1.4,60.18042090603208,
Mem,99,pineapple01a.jpg,Z,Z,JPG\,pineapple01a,C:\\Users\\Psychology\\Documents\\ABExperiment\\MemoryStudy\\resources\\JPG\\pineapple01a.jpg,C:\\Users\\Psychology\\Documents\\ABExperiment\\MemoryStudy\\resources\\JPG\\,0,216,216,216,,,,,,,90.47392210000544,None,1,0.22048600000562146,90.47392210000544,None,90.47392210000544,None,test,001,2022-06-22_09h32.54.115,MemoryStudy,2022.1.4,60.18042090603208,
Mem,99,strawberry.jpg,Z,Z,JPG\,strawberry,C:\\Users\\Psychology\\Documents\\ABExperiment\\MemoryStudy\\resources\\JPG\\strawberry.jpg,C:\\Users\\Psychology\\Documents\\ABExperiment\\MemoryStudy\\resources\\JPG\\,0,217,217,217,,,,,,,90.81337699998403,None,1,0.21609149998403154,90.81337699998403,None,90.81337699998403,None,test,001,2022-06-22_09h32.54.115,MemoryStudy,2022.1.4,60.18042090603208,
Mem,99,teabag.jpg,Z,Z,JPG\,teabag,C:\\Users\\Psychology\\Documents\\ABExperiment\\MemoryStudy\\resources\\JPG\\teabag.jpg,C:\\Users\\Psychology\\Documents\\ABExperiment\\MemoryStudy\\resources\\JPG\\,0,218,218,218,,,,,,,91.14801529998658,None,1,0.2251481999992393,91.14801529998658,None,91.14801529998658,None,test,001,2022-06-22_09h32.54.115,MemoryStudy,2022.1.4,60.18042090603208,
Mem,99,dandelion.jpg,Z,Z,JPG\,dandelion,C:\\Users\\Psychology\\Documents\\ABExperiment\\MemoryStudy\\resources\\JPG\\dandelion.jpg,C:\\Users\\Psychology\\Documents\\ABExperiment\\MemoryStudy\\resources\\JPG\\,0,219,219,219,,,,,,,91.41483470000094,None,1,0.29420020000543445,91.41483470000094,None,91.41483470000094,None,test,001,2022-06-22_09h32.54.115,MemoryStudy,2022.1.4,60.18042090603208,
Mem,99,paintbrush01.jpg,Z,Z,JPG\,paintbrush01,C:\\Users\\Psychology\\Documents\\ABExperiment\\MemoryStudy\\resources\\JPG\\paintbrush01.jpg,C:\\Users\\Psychology\\Documents\\ABExperiment\\MemoryStudy\\resources\\JPG\\,0,220,220,220,,,,,,,91.81199660000857,None,1,0.24059689999558032,91.81199660000857,None,91.81199660000857,None,test,001,2022-06-22_09h32.54.115,MemoryStudy,2022.1.4,60.18042090603208,
Mem,99,celery.jpg,Z,Z,JPG\,celery,C:\\Users\\Psychology\\Documents\\ABExperiment\\MemoryStudy\\resources\\JPG\\celery.jpg,C:\\Users\\Psychology\\Documents\\ABExperiment\\MemoryStudy\\resources\\JPG\\,0,221,221,221,,,,,,,92.16851630000747,None,1,0.21256059998995624,92.16851630000747,None,92.16851630000747,None,test,001,2022-06-22_09h32.54.115,MemoryStudy,2022.1.4,60.18042090603208,
Mem,99,eraser.jpg,Z,Z,JPG\,eraser,C:\\Users\\Psychology\\Documents\\ABExperiment\\MemoryStudy\\resources\\JPG\\eraser.jpg,C:\\Users\\Psychology\\Documents\\ABExperiment\\MemoryStudy\\resources\\JPG\\,0,222,222,222,,,,,,,92.50404199998593,None,1,0.22998860001098365,92.50404199998593,None,92.50404199998593,None,test,001,2022-06-22_09h32.54.115,MemoryStudy,2022.1.4,60.18042090603208,
Mem,99,medal02b.jpg,Z,Z,JPG\,medal02b,C:\\Users\\Psychology\\Documents\\ABExperiment\\MemoryStudy\\resources\\JPG\\medal02b.jpg,C:\\Users\\Psychology\\Documents\\ABExperiment\\MemoryStudy\\resources\\JPG\\,0,223,223,223,,,,,,,92.87505609999062,None,1,0.2023163999838289,92.87505609999062,None,92.87505609999062,None,test,001,2022-06-22_09h32.54.115,MemoryStudy,2022.1.4,60.18042090603208,
Mem,99,hammer01.jpg,Z,Z,JPG\,hammer01,C:\\Users\\Psychology\\Documents\\ABExperiment\\MemoryStudy\\resources\\JPG\\hammer01.jpg,C:\\Users\\Psychology\\Documents\\ABExperiment\\MemoryStudy\\resources\\JPG\\,0,224,224,224,,,,,,,93.18582300000708,None,1,0.2190134999982547,93.18582300000708,None,93.18582300000708,None,test,001,2022-06-22_09h32.54.115,MemoryStudy,2022.1.4,60.18042090603208,
Mem,99,speaker04.jpg,Z,Z,JPG\,speaker04,C:\\Users\\Psychology\\Documents\\ABExperiment\\MemoryStudy\\resources\\JPG\\speaker04.jpg,C:\\Users\\Psychology\\Documents\\ABExperiment\\MemoryStudy\\resources\\JPG\\,0,225,225,225,,,,,,,93.53440969999065,None,1,0.20695510000223294,93.53440969999065,None,93.53440969999065,None,test,001,2022-06-22_09h32.54.115,MemoryStudy,2022.1.4,60.18042090603208,
Mem,99,mushroom01.jpg,Z,Z,JPG\,mushroom01,C:\\Users\\Psychology\\Documents\\ABExperiment\\MemoryStudy\\resources\\JPG\\mushroom01.jpg,C:\\Users\\Psychology\\Documents\\ABExperiment\\MemoryStudy\\resources\\JPG\\,0,226,226,226,,,,,,,93.86117859999649,None,1,0.231588400027249,93.86117859999649,None,93.86117859999649,None,test,001,2022-06-22_09h32.54.115,MemoryStudy,2022.1.4,60.18042090603208,
Mem,99,pear01.jpg,Z,Z,JPG\,pear01,C:\\Users\\Psychology\\Documents\\ABExperiment\\MemoryStudy\\resources\\JPG\\pear01.jpg,C:\\Users\\Psychology\\Documents\\ABExperiment\\MemoryStudy\\resources\\JPG\\,0,227,227,227,,,,,,,94.23093659998267,None,1,0.19094840000616387,94.23093659998267,None,94.23093659998267,None,test,001,2022-06-22_09h32.54.115,MemoryStudy,2022.1.4,60.18042090603208,
Mem,99,comb02a.jpg,Z,Z,JPG\,comb02a,C:\\Users\\Psychology\\Documents\\ABExperiment\\MemoryStudy\\resources\\JPG\\comb02a.jpg,C:\\Users\\Psychology\\Documents\\ABExperiment\\MemoryStudy\\resources\\JPG\\,0,228,228,228,,,,,,,94.53580859999056,None,1,0.22892589998082258,94.53580859999056,None,94.53580859999056,None,test,001,2022-06-22_09h32.54.115,MemoryStudy,2022.1.4,60.18042090603208,
Mem,99,plate01b.jpg,Z,Z,JPG\,plate01b,C:\\Users\\Psychology\\Documents\\ABExperiment\\MemoryStudy\\resources\\JPG\\plate01b.jpg,C:\\Users\\Psychology\\Documents\\ABExperiment\\MemoryStudy\\resources\\JPG\\,0,229,229,229,,,,,,,94.88225890000467,None,1,0.2583988000114914,94.88225890000467,None,94.88225890000467,None,test,001,2022-06-22_09h32.54.115,MemoryStudy,2022.1.4,60.18042090603208,
Mem,99,clock01a.jpg,Z,Z,JPG\,clock01a,C:\\Users\\Psychology\\Documents\\ABExperiment\\MemoryStudy\\resources\\JPG\\clock01a.jpg,C:\\Users\\Psychology\\Documents\\ABExperiment\\MemoryStudy\\resources\\JPG\\,0,230,230,230,,,,,,,95.28610719999415,None,1,0.2004431000095792,95.28610719999415,None,95.28610719999415,None,test,001,2022-06-22_09h32.54.115,MemoryStudy,2022.1.4,60.18042090603208,
Mem,99,button01.jpg,Z,Z,JPG\,button01,C:\\Users\\Psychology\\Documents\\ABExperiment\\MemoryStudy\\resources\\JPG\\button01.jpg,C:\\Users\\Psychology\\Documents\\ABExperiment\\MemoryStudy\\resources\\JPG\\,0,231,231,231,,,,,,,95.58284540000022,None,1,0.24612480000359938,95.58284540000022,None,95.58284540000022,None,test,001,2022-06-22_09h32.54.115,MemoryStudy,2022.1.4,60.18042090603208,
Mem,99,globe.jpg,Z,Z,JPG\,globe,C:\\Users\\Psychology\\Documents\\ABExperiment\\MemoryStudy\\resources\\JPG\\globe.jpg,C:\\Users\\Psychology\\Documents\\ABExperiment\\MemoryStudy\\resources\\JPG\\,0,232,232,232,,,,,,,95.96806859999197,None,1,0.22150799998780712,95.96806859999197,None,95.96806859999197,None,test,001,2022-06-22_09h32.54.115,MemoryStudy,2022.1.4,60.18042090603208,
Mem,99,sewingmachine01a.jpg,Z,Z,JPG\,sewingmachine01a,C:\\Users\\Psychology\\Documents\\ABExperiment\\MemoryStudy\\resources\\JPG\\sewingmachine01a.jpg,C:\\Users\\Psychology\\Documents\\ABExperiment\\MemoryStudy\\resources\\JPG\\,0,233,233,233,,,,,,,96.31780789999175,None,1,0.18404350001947023,96.31780789999175,None,96.31780789999175,None,test,001,2022-06-22_09h32.54.115,MemoryStudy,2022.1.4,60.18042090603208,
Mem,99,scarf.jpg,Z,Z,JPG\,scarf,C:\\Users\\Psychology\\Documents\\ABExperiment\\MemoryStudy\\resources\\JPG\\scarf.jpg,C:\\Users\\Psychology\\Documents\\ABExperiment\\MemoryStudy\\resources\\JPG\\,0,234,234,234,,,,,,,96.61179950000951,None,1,0.2330515000212472,96.61179950000951,None,96.61179950000951,None,test,001,2022-06-22_09h32.54.115,MemoryStudy,2022.1.4,60.18042090603208,
Mem,99,carrot01.jpg,Z,Z,JPG\,carrot01,C:\\Users\\Psychology\\Documents\\ABExperiment\\MemoryStudy\\resources\\JPG\\carrot01.jpg,C:\\Users\\Psychology\\Documents\\ABExperiment\\MemoryStudy\\resources\\JPG\\,0,235,235,235,,,,,,,96.97957319999114,None,1,0.1936963000043761,96.97957319999114,None,96.97957319999114,None,test,001,2022-06-22_09h32.54.115,MemoryStudy,2022.1.4,60.18042090603208,
Mem,99,book01b.jpg,Z,Z,JPG\,book01b,C:\\Users\\Psychology\\Documents\\ABExperiment\\MemoryStudy\\resources\\JPG\\book01b.jpg,C:\\Users\\Psychology\\Documents\\ABExperiment\\MemoryStudy\\resources\\JPG\\,0,236,236,236,,,,,,,97.30625379999401,None,1,0.21098050000728108,97.30625379999401,None,97.30625379999401,None,test,001,2022-06-22_09h32.54.115,MemoryStudy,2022.1.4,60.18042090603208,
Mem,99,tennisball01b.jpg,Z,Z,JPG\,tennisball01b,C:\\Users\\Psychology\\Documents\\ABExperiment\\MemoryStudy\\resources\\JPG\\tennisball01b.jpg,C:\\Users\\Psychology\\Documents\\ABExperiment\\MemoryStudy\\resources\\JPG\\,0,237,237,237,,,,,,,97.63260589999845,None,1,0.2369227999879513,97.63260589999845,None,97.63260589999845,None,test,001,2022-06-22_09h32.54.115,MemoryStudy,2022.1.4,60.18042090603208,
Mem,99,handcuffs.jpg,Z,Z,JPG\,handcuffs,C:\\Users\\Psychology\\Documents\\ABExperiment\\MemoryStudy\\resources\\JPG\\handcuffs.jpg,C:\\Users\\Psychology\\Documents\\ABExperiment\\MemoryStudy\\resources\\JPG\\,0,238,238,238,,,,,,,97.89896419999423,None,1,0.27422620001016185,97.89896419999423,None,97.89896419999423,None,test,001,2022-06-22_09h32.54.115,MemoryStudy,2022.1.4,60.18042090603208,
Mem,99,feather03a.jpg,Z,Z,JPG\,feather03a,C:\\Users\\Psychology\\Documents\\ABExperiment\\MemoryStudy\\resources\\JPG\\feather03a.jpg,C:\\Users\\Psychology\\Documents\\ABExperiment\\MemoryStudy\\resources\\JPG\\,0,239,239,239,,,,,,,98.27763379999669,None,1,0.22384069999679923,98.27763379999669,None,98.27763379999669,None,test,001,2022-06-22_09h32.54.115,MemoryStudy,2022.1.4,60.18042090603208,
Mem,99,sock01a.jpg,Z,Z,JPG\,sock01a,C:\\Users\\Psychology\\Documents\\ABExperiment\\MemoryStudy\\resources\\JPG\\sock01a.jpg,C:\\Users\\Psychology\\Documents\\ABExperiment\\MemoryStudy\\resources\\JPG\\,0,240,240,240,,,,,,,98.59500830000616,None,1,0.23419079999439418,98.59500830000616,None,98.59500830000616,None,test,001,2022-06-22_09h32.54.115,MemoryStudy,2022.1.4,60.18042090603208,
Mem,99,printer02.jpg,Z,Z,JPG\,printer02,C:\\Users\\Psychology\\Documents\\ABExperiment\\MemoryStudy\\resources\\JPG\\printer02.jpg,C:\\Users\\Psychology\\Documents\\ABExperiment\\MemoryStudy\\resources\\JPG\\,0,241,241,241,,,,,,,98.96076859999448,None,1,0.19649679999565706,98.96076859999448,None,98.96076859999448,None,test,001,2022-06-22_09h32.54.115,MemoryStudy,2022.1.4,60.18042090603208,
Mem,99,garlic01a.jpg,Z,Z,JPG\,garlic01a,C:\\Users\\Psychology\\Documents\\ABExperiment\\MemoryStudy\\resources\\JPG\\garlic01a.jpg,C:\\Users\\Psychology\\Documents\\ABExperiment\\MemoryStudy\\resources\\JPG\\,0,242,242,242,,,,,,,99.28390549999312,None,1,0.1770117999985814,99.28390549999312,None,99.28390549999312,None,test,001,2022-06-22_09h32.54.115,MemoryStudy,2022.1.4,60.18042090603208,
Mem,99,watermelon01.jpg,Z,Z,JPG\,watermelon01,C:\\Users\\Psychology\\Documents\\ABExperiment\\MemoryStudy\\resources\\JPG\\watermelon01.jpg,C:\\Users\\Psychology\\Documents\\ABExperiment\\MemoryStudy\\resources\\JPG\\,0,243,243,243,,,,,,,99.58098669999163,None,1,0.23170470001059584,99.58098669999163,None,99.58098669999163,None,test,001,2022-06-22_09h32.54.115,MemoryStudy,2022.1.4,60.18042090603208,
Mem,99,stapler03a.jpg,Z,Z,JPG\,stapler03a,C:\\Users\\Psychology\\Documents\\ABExperiment\\MemoryStudy\\resources\\JPG\\stapler03a.jpg,C:\\Users\\Psychology\\Documents\\ABExperiment\\MemoryStudy\\resources\\JPG\\,0,244,244,244,,,,,,,99.97093769998173,None,1,0.17004339999402873,99.97093769998173,None,99.97093769998173,None,test,001,2022-06-22_09h32.54.115,MemoryStudy,2022.1.4,60.18042090603208,
Mem,99,microscope.jpg,Z,Z,JPG\,microscope,C:\\Users\\Psychology\\Documents\\ABExperiment\\MemoryStudy\\resources\\JPG\\microscope.jpg,C:\\Users\\Psychology\\Documents\\ABExperiment\\MemoryStudy\\resources\\JPG\\,0,245,245,245,,,,,,,100.2424262999848,None,1,0.21910670000943355,100.2424262999848,None,100.2424262999848,None,test,001,2022-06-22_09h32.54.115,MemoryStudy,2022.1.4,60.18042090603208,
Mem,99,blueberry01.jpg,Z,Z,JPG\,blueberry01,C:\\Users\\Psychology\\Documents\\ABExperiment\\MemoryStudy\\resources\\JPG\\blueberry01.jpg,C:\\Users\\Psychology\\Documents\\ABExperiment\\MemoryStudy\\resources\\JPG\\,0,246,246,246,,,,,,,100.58310069999425,None,1,0.20594179999898188,100.58310069999425,None,100.58310069999425,None,test,001,2022-06-22_09h32.54.115,MemoryStudy,2022.1.4,60.18042090603208,
Mem,99,computerkeyboard02.jpg,Z,Z,JPG\,computerkeyboard02,C:\\Users\\Psychology\\Documents\\ABExperiment\\MemoryStudy\\resources\\JPG\\computerkeyboard02.jpg,C:\\Users\\Psychology\\Documents\\ABExperiment\\MemoryStudy\\resources\\JPG\\,0,247,247,247,,,,,,,100.91238249998423,None,1,0.18085820000851527,100.91238249998423,None,100.91238249998423,None,test,001,2022-06-22_09h32.54.115,MemoryStudy,2022.1.4,60.18042090603208,
Mem,99,lamp04a.jpg,Z,Z,JPG\,lamp04a,C:\\Users\\Psychology\\Documents\\ABExperiment\\MemoryStudy\\resources\\JPG\\lamp04a.jpg,C:\\Users\\Psychology\\Documents\\ABExperiment\\MemoryStudy\\resources\\JPG\\,0,248,248,248,,,,,,,101.21816429999308,None,1,0.21039409999502823,101.21816429999308,None,101.21816429999308,None,test,001,2022-06-22_09h32.54.115,MemoryStudy,2022.1.4,60.18042090603208,
Mem,99,match.jpg,Z,Z,JPG\,match,C:\\Users\\Psychology\\Documents\\ABExperiment\\MemoryStudy\\resources\\JPG\\match.jpg,C:\\Users\\Psychology\\Documents\\ABExperiment\\MemoryStudy\\resources\\JPG\\,0,249,249,249,,,,,,,101.53669039998204,None,1,0.21230610000202432,101.53669039998204,None,101.53669039998204,None,test,001,2022-06-22_09h32.54.115,MemoryStudy,2022.1.4,60.18042090603208,
Mem,99,iron01b.jpg,Z,Z,JPG\,iron01b,C:\\Users\\Psychology\\Documents\\ABExperiment\\MemoryStudy\\resources\\JPG\\iron01b.jpg,C:\\Users\\Psychology\\Documents\\ABExperiment\\MemoryStudy\\resources\\JPG\\,0,250,250,250,,,,,,,101.8833125999954,None,1,0.2100771999976132,101.8833125999954,None,101.8833125999954,None,test,001,2022-06-22_09h32.54.115,MemoryStudy,2022.1.4,60.18042090603208,
Mem,99,ring01.jpg,Z,Z,JPG\,ring01,C:\\Users\\Psychology\\Documents\\ABExperiment\\MemoryStudy\\resources\\JPG\\ring01.jpg,C:\\Users\\Psychology\\Documents\\ABExperiment\\MemoryStudy\\resources\\JPG\\,0,251,251,251,,,,,,,102.19371870000032,None,1,0.20307899999897927,102.19371870000032,None,102.19371870000032,None,test,001,2022-06-22_09h32.54.115,MemoryStudy,2022.1.4,60.18042090603208,
Mem,99,pen04b.jpg,Z,Z,JPG\,pen04b,C:\\Users\\Psychology\\Documents\\ABExperiment\\MemoryStudy\\resources\\JPG\\pen04b.jpg,C:\\Users\\Psychology\\Documents\\ABExperiment\\MemoryStudy\\resources\\JPG\\,0,252,252,252,,,,,,,102.50900520000141,None,1,0.1920817000209354,102.50900520000141,None,102.50900520000141,None,test,001,2022-06-22_09h32.54.115,MemoryStudy,2022.1.4,60.18042090603208,
Mem,99,binoculars01b.jpg,Z,Z,JPG\,binoculars01b,C:\\Users\\Psychology\\Documents\\ABExperiment\\MemoryStudy\\resources\\JPG\\binoculars01b.jpg,C:\\Users\\Psychology\\Documents\\ABExperiment\\MemoryStudy\\resources\\JPG\\,0,253,253,253,,,,,,,102.81622390000848,None,1,0.20524750000913627,102.81622390000848,None,102.81622390000848,None,test,001,2022-06-22_09h32.54.115,MemoryStudy,2022.1.4,60.18042090603208,
Mem,99,cauliflower01.jpg,Z,Z,JPG\,cauliflower01,C:\\Users\\Psychology\\Documents\\ABExperiment\\MemoryStudy\\resources\\JPG\\cauliflower01.jpg,C:\\Users\\Psychology\\Documents\\ABExperiment\\MemoryStudy\\resources\\JPG\\,0,254,254,254,,,,,,,103.14511549999588,None,1,0.187822200008668,103.14511549999588,None,103.14511549999588,None,test,001,2022-06-22_09h32.54.115,MemoryStudy,2022.1.4,60.18042090603208,
