TrialType,Lag,Image,T1PA,T2PA,PicFolder,Picture,FullPathName,FilePath,trials.thisRepN,trials.thisTrialN,trials.thisN,trials.thisIndex,text.started,text.stopped,End_Instructions.keys,End_Instructions.rt,End_Instructions.started,End_Instructions.stopped,MemTest.started,MemTest.stopped,MemResponse.keys,MemResponse.rt,MemResponse.started,MemResponse.stopped,Display.started,Display.stopped,participant,session,date,expName,psychopyVersion,frameRate,
,,,,,,,,,,,,,8.478033399995184,None,space,0.5973135999956867,8.478033399995184,None,,,,,,,,,yt,001,2022-06-21_15h58.47.245,MemoryStudy,2022.1.4,59.95078040788951,
Mem,1,giraffe.jpg,P,P,JPG\,giraffe,C:\\Users\\Psychology\\Documents\\ABExperiment\\MemoryStudy\\resources\\JPG\\giraffe.jpg,C:\\Users\\Psychology\\Documents\\ABExperiment\\MemoryStudy\\resources\\JPG\\,0,0,0,0,,,,,,,9.27809089999937,None,1,0.8282235000078799,9.27809089999937,None,9.27809089999937,None,yt,001,2022-06-21_15h58.47.245,MemoryStudy,2022.1.4,59.95078040788951,
Mem,1,greathornowl.jpg,P,P,JPG\,greathornowl,C:\\Users\\Psychology\\Documents\\ABExperiment\\MemoryStudy\\resources\\JPG\\greathornowl.jpg,C:\\Users\\Psychology\\Documents\\ABExperiment\\MemoryStudy\\resources\\JPG\\,0,1,1,1,,,,,,,10.136125200006063,None,1,0.31416920000629034,10.136125200006063,None,10.136125200006063,None,yt,001,2022-06-21_15h58.47.245,MemoryStudy,2022.1.4,59.95078040788951,
Mem,1,candle08b.jpg,P,P,JPG\,candle08b,C:\\Users\\Psychology\\Documents\\ABExperiment\\MemoryStudy\\resources\\JPG\\candle08b.jpg,C:\\Users\\Psychology\\Documents\\ABExperiment\\MemoryStudy\\resources\\JPG\\,0,2,2,2,,,,,,,10.623202799994033,None,1,0.33170650000101887,10.623202799994033,None,10.623202799994033,None,yt,001,2022-06-21_15h58.47.245,MemoryStudy,2022.1.4,59.95078040788951,
Mem,1,horse.jpg,P,P,JPG\,horse,C:\\Users\\Psychology\\Documents\\ABExperiment\\MemoryStudy\\resources\\JPG\\horse.jpg,C:\\Users\\Psychology\\Documents\\ABExperiment\\MemoryStudy\\resources\\JPG\\,0,3,3,3,,,,,,,11.04293090000283,None,1,0.3931103000068106,11.04293090000283,None,11.04293090000283,None,yt,001,2022-06-21_15h58.47.245,MemoryStudy,2022.1.4,59.95078040788951,
Mem,1,snowman.jpg,P,P,JPG\,snowman,C:\\Users\\Psychology\\Documents\\ABExperiment\\MemoryStudy\\resources\\JPG\\snowman.jpg,C:\\Users\\Psychology\\Documents\\ABExperiment\\MemoryStudy\\resources\\JPG\\,0,4,4,4,,,,,,,11.470341000007465,None,1,0.4135695000004489,11.470341000007465,None,11.470341000007465,None,yt,001,2022-06-21_15h58.47.245,MemoryStudy,2022.1.4,59.95078040788951,
Mem,1,squirrel.jpg,P,P,JPG\,squirrel,C:\\Users\\Psychology\\Documents\\ABExperiment\\MemoryStudy\\resources\\JPG\\squirrel.jpg,C:\\Users\\Psychology\\Documents\\ABExperiment\\MemoryStudy\\resources\\JPG\\,0,5,5,5,,,,,,,11.901514700002735,None,1,0.4534449000057066,11.901514700002735,None,11.901514700002735,None,yt,001,2022-06-21_15h58.47.245,MemoryStudy,2022.1.4,59.95078040788951,
Mem,1,firtree.jpg,P,P,JPG\,firtree,C:\\Users\\Psychology\\Documents\\ABExperiment\\MemoryStudy\\resources\\JPG\\firtree.jpg,C:\\Users\\Psychology\\Documents\\ABExperiment\\MemoryStudy\\resources\\JPG\\,0,6,6,6,,,,,,,12.48330469999928,None,1,0.36749499999859836,12.48330469999928,None,12.48330469999928,None,yt,001,2022-06-21_15h58.47.245,MemoryStudy,2022.1.4,59.95078040788951,
Mem,1,bowlingball.jpg,P,P,JPG\,bowlingball,C:\\Users\\Psychology\\Documents\\ABExperiment\\MemoryStudy\\resources\\JPG\\bowlingball.jpg,C:\\Users\\Psychology\\Documents\\ABExperiment\\MemoryStudy\\resources\\JPG\\,0,7,7,7,,,,,,,12.870557999995071,None,1,0.4439522000029683,12.870557999995071,None,12.870557999995071,None,yt,001,2022-06-21_15h58.47.245,MemoryStudy,2022.1.4,59.95078040788951,
Mem,1,bowlingpin.jpg,P,P,JPG\,bowlingpin,C:\\Users\\Psychology\\Documents\\ABExperiment\\MemoryStudy\\resources\\JPG\\bowlingpin.jpg,C:\\Users\\Psychology\\Documents\\ABExperiment\\MemoryStudy\\resources\\JPG\\,0,8,8,8,,,,,,,13.336938599997666,None,1,0.4502874000027077,13.336938599997666,None,13.336938599997666,None,yt,001,2022-06-21_15h58.47.245,MemoryStudy,2022.1.4,59.95078040788951,
Mem,1,candycane01a.jpg,P,P,JPG\,candycane01a,C:\\Users\\Psychology\\Documents\\ABExperiment\\MemoryStudy\\resources\\JPG\\candycane01a.jpg,C:\\Users\\Psychology\\Documents\\ABExperiment\\MemoryStudy\\resources\\JPG\\,0,9,9,9,,,,,,,13.820109899999807,None,1,0.4071179000020493,13.820109899999807,None,13.820109899999807,None,yt,001,2022-06-21_15h58.47.245,MemoryStudy,2022.1.4,59.95078040788951,
Mem,1,dolphin01.jpg,P,P,JPG\,dolphin01,C:\\Users\\Psychology\\Documents\\ABExperiment\\MemoryStudy\\resources\\JPG\\dolphin01.jpg,C:\\Users\\Psychology\\Documents\\ABExperiment\\MemoryStudy\\resources\\JPG\\,0,10,10,10,,,,,,,14.254500199996983,None,1,0.460747100005392,14.254500199996983,None,14.254500199996983,None,yt,001,2022-06-21_15h58.47.245,MemoryStudy,2022.1.4,59.95078040788951,
Mem,1,dromedary.jpg,P,P,JPG\,dromedary,C:\\Users\\Psychology\\Documents\\ABExperiment\\MemoryStudy\\resources\\JPG\\dromedary.jpg,C:\\Users\\Psychology\\Documents\\ABExperiment\\MemoryStudy\\resources\\JPG\\,0,11,11,11,,,,,,,14.73851250000007,None,1,0.4174585000000661,14.73851250000007,None,14.73851250000007,None,yt,001,2022-06-21_15h58.47.245,MemoryStudy,2022.1.4,59.95078040788951,
Mem,1,football.jpg,P,P,JPG\,football,C:\\Users\\Psychology\\Documents\\ABExperiment\\MemoryStudy\\resources\\JPG\\football.jpg,C:\\Users\\Psychology\\Documents\\ABExperiment\\MemoryStudy\\resources\\JPG\\,0,12,12,12,,,,,,,15.188373500001035,None,1,0.4224904000002425,15.188373500001035,None,15.188373500001035,None,yt,001,2022-06-21_15h58.47.245,MemoryStudy,2022.1.4,59.95078040788951,
Mem,1,golfball.jpg,P,P,JPG\,golfball,C:\\Users\\Psychology\\Documents\\ABExperiment\\MemoryStudy\\resources\\JPG\\golfball.jpg,C:\\Users\\Psychology\\Documents\\ABExperiment\\MemoryStudy\\resources\\JPG\\,0,13,13,13,,,,,,,15.639129000002868,None,1,0.44460000000253785,15.639129000002868,None,15.639129000002868,None,yt,001,2022-06-21_15h58.47.245,MemoryStudy,2022.1.4,59.95078040788951,
Mem,1,guitarcase.jpg,P,P,JPG\,guitarcase,C:\\Users\\Psychology\\Documents\\ABExperiment\\MemoryStudy\\resources\\JPG\\guitarcase.jpg,C:\\Users\\Psychology\\Documents\\ABExperiment\\MemoryStudy\\resources\\JPG\\,0,14,14,14,,,,,,,16.10636119999981,None,1,0.4170538000034867,16.10636119999981,None,16.10636119999981,None,yt,001,2022-06-21_15h58.47.245,MemoryStudy,2022.1.4,59.95078040788951,
Mem,1,jellybean.jpg,P,P,JPG\,jellybean,C:\\Users\\Psychology\\Documents\\ABExperiment\\MemoryStudy\\resources\\JPG\\jellybean.jpg,C:\\Users\\Psychology\\Documents\\ABExperiment\\MemoryStudy\\resources\\JPG\\,0,15,15,15,,,,,,,16.556057499998133,None,1,0.422229799994966,16.556057499998133,None,16.556057499998133,None,yt,001,2022-06-21_15h58.47.245,MemoryStudy,2022.1.4,59.95078040788951,
Mem,1,kangaroo.jpg,P,P,JPG\,kangaroo,C:\\Users\\Psychology\\Documents\\ABExperiment\\MemoryStudy\\resources\\JPG\\kangaroo.jpg,C:\\Users\\Psychology\\Documents\\ABExperiment\\MemoryStudy\\resources\\JPG\\,0,16,16,16,,,,,,,17.007068000006257,None,1,0.4112239999958547,17.007068000006257,None,17.007068000006257,None,yt,001,2022-06-21_15h58.47.245,MemoryStudy,2022.1.4,59.95078040788951,
Mem,1,kite.jpg,P,P,JPG\,kite,C:\\Users\\Psychology\\Documents\\ABExperiment\\MemoryStudy\\resources\\JPG\\kite.jpg,C:\\Users\\Psychology\\Documents\\ABExperiment\\MemoryStudy\\resources\\JPG\\,0,17,17,17,,,,,,,17.441116899994086,None,1,0.4508574000064982,17.441116899994086,None,17.441116899994086,None,yt,001,2022-06-21_15h58.47.245,MemoryStudy,2022.1.4,59.95078040788951,
Mem,1,lightswitch01.jpg,P,P,JPG\,lightswitch01,C:\\Users\\Psychology\\Documents\\ABExperiment\\MemoryStudy\\resources\\JPG\\lightswitch01.jpg,C:\\Users\\Psychology\\Documents\\ABExperiment\\MemoryStudy\\resources\\JPG\\,0,18,18,18,,,,,,,17.92409929999849,None,1,0.414787100002286,17.92409929999849,None,17.92409929999849,None,yt,001,2022-06-21_15h58.47.245,MemoryStudy,2022.1.4,59.95078040788951,
Mem,1,locker.jpg,P,P,JPG\,locker,C:\\Users\\Psychology\\Documents\\ABExperiment\\MemoryStudy\\resources\\JPG\\locker.jpg,C:\\Users\\Psychology\\Documents\\ABExperiment\\MemoryStudy\\resources\\JPG\\,0,19,19,19,,,,,,,18.35919410000497,None,1,0.43574590000207536,18.35919410000497,None,18.35919410000497,None,yt,001,2022-06-21_15h58.47.245,MemoryStudy,2022.1.4,59.95078040788951,
Mem,1,mailbox01.jpg,P,P,JPG\,mailbox01,C:\\Users\\Psychology\\Documents\\ABExperiment\\MemoryStudy\\resources\\JPG\\mailbox01.jpg,C:\\Users\\Psychology\\Documents\\ABExperiment\\MemoryStudy\\resources\\JPG\\,0,20,20,20,,,,,,,18.917235200002324,None,1,0.357082000002265,18.917235200002324,None,18.917235200002324,None,yt,001,2022-06-21_15h58.47.245,MemoryStudy,2022.1.4,59.95078040788951,
Mem,1,mailbox02.jpg,P,P,JPG\,mailbox02,C:\\Users\\Psychology\\Documents\\ABExperiment\\MemoryStudy\\resources\\JPG\\mailbox02.jpg,C:\\Users\\Psychology\\Documents\\ABExperiment\\MemoryStudy\\resources\\JPG\\,0,21,21,21,,,,,,,19.29613230000541,None,1,0.4342988999997033,19.29613230000541,None,19.29613230000541,None,yt,001,2022-06-21_15h58.47.245,MemoryStudy,2022.1.4,59.95078040788951,
Mem,1,mattress.jpg,P,P,JPG\,mattress,C:\\Users\\Psychology\\Documents\\ABExperiment\\MemoryStudy\\resources\\JPG\\mattress.jpg,C:\\Users\\Psychology\\Documents\\ABExperiment\\MemoryStudy\\resources\\JPG\\,0,22,22,22,,,,,,,19.762200700002722,None,1,0.4092343000083929,19.762200700002722,None,19.762200700002722,None,yt,001,2022-06-21_15h58.47.245,MemoryStudy,2022.1.4,59.95078040788951,
Mem,1,pumpkin.jpg,P,P,JPG\,pumpkin,C:\\Users\\Psychology\\Documents\\ABExperiment\\MemoryStudy\\resources\\JPG\\pumpkin.jpg,C:\\Users\\Psychology\\Documents\\ABExperiment\\MemoryStudy\\resources\\JPG\\,0,23,23,23,,,,,,,20.196444100001827,None,1,0.4301203999930294,20.196444100001827,None,20.196444100001827,None,yt,001,2022-06-21_15h58.47.245,MemoryStudy,2022.1.4,59.95078040788951,
Mem,1,schoolbus.jpg,P,P,JPG\,schoolbus,C:\\Users\\Psychology\\Documents\\ABExperiment\\MemoryStudy\\resources\\JPG\\schoolbus.jpg,C:\\Users\\Psychology\\Documents\\ABExperiment\\MemoryStudy\\resources\\JPG\\,0,24,24,24,,,,,,,20.650095300006797,None,1,0.4164275000075577,20.650095300006797,None,20.650095300006797,None,yt,001,2022-06-21_15h58.47.245,MemoryStudy,2022.1.4,59.95078040788951,
Mem,1,skateboard.jpg,P,P,JPG\,skateboard,C:\\Users\\Psychology\\Documents\\ABExperiment\\MemoryStudy\\resources\\JPG\\skateboard.jpg,C:\\Users\\Psychology\\Documents\\ABExperiment\\MemoryStudy\\resources\\JPG\\,0,25,25,25,,,,,,,21.098922599994694,None,1,0.4403924999933224,21.098922599994694,None,21.098922599994694,None,yt,001,2022-06-21_15h58.47.245,MemoryStudy,2022.1.4,59.95078040788951,
Mem,1,soccerball.jpg,P,P,JPG\,soccerball,C:\\Users\\Psychology\\Documents\\ABExperiment\\MemoryStudy\\resources\\JPG\\soccerball.jpg,C:\\Users\\Psychology\\Documents\\ABExperiment\\MemoryStudy\\resources\\JPG\\,0,26,26,26,,,,,,,21.56176979999873,None,1,0.42571809999935795,21.56176979999873,None,21.56176979999873,None,yt,001,2022-06-21_15h58.47.245,MemoryStudy,2022.1.4,59.95078040788951,
Mem,1,wheelchair.jpg,P,P,JPG\,wheelchair,C:\\Users\\Psychology\\Documents\\ABExperiment\\MemoryStudy\\resources\\JPG\\wheelchair.jpg,C:\\Users\\Psychology\\Documents\\ABExperiment\\MemoryStudy\\resources\\JPG\\,0,27,27,27,,,,,,,22.0123459000024,None,1,0.4064410000137286,22.0123459000024,None,22.0123459000024,None,yt,001,2022-06-21_15h58.47.245,MemoryStudy,2022.1.4,59.95078040788951,
Mem,1,zebra.jpg,P,P,JPG\,zebra,C:\\Users\\Psychology\\Documents\\ABExperiment\\MemoryStudy\\resources\\JPG\\zebra.jpg,C:\\Users\\Psychology\\Documents\\ABExperiment\\MemoryStudy\\resources\\JPG\\,0,28,28,28,,,,,,,22.448486199995386,None,1,0.3863963000039803,22.448486199995386,None,22.448486199995386,None,yt,001,2022-06-21_15h58.47.245,MemoryStudy,2022.1.4,59.95078040788951,
Mem,1,pooltable.jpg,P,P,JPG\,pooltable,C:\\Users\\Psychology\\Documents\\ABExperiment\\MemoryStudy\\resources\\JPG\\pooltable.jpg,C:\\Users\\Psychology\\Documents\\ABExperiment\\MemoryStudy\\resources\\JPG\\,0,29,29,29,,,,,,,22.865813600001275,None,1,0.4010343000118155,22.865813600001275,None,22.865813600001275,None,yt,001,2022-06-21_15h58.47.245,MemoryStudy,2022.1.4,59.95078040788951,
Mem,1,swing.jpg,P,P,JPG\,swing,C:\\Users\\Psychology\\Documents\\ABExperiment\\MemoryStudy\\resources\\JPG\\swing.jpg,C:\\Users\\Psychology\\Documents\\ABExperiment\\MemoryStudy\\resources\\JPG\\,0,30,30,30,,,,,,,23.296395099998335,None,1,0.4184370000002673,23.296395099998335,None,23.296395099998335,None,yt,001,2022-06-21_15h58.47.245,MemoryStudy,2022.1.4,59.95078040788951,
Mem,1,africanelephant.jpg,P,P,JPG\,africanelephant,C:\\Users\\Psychology\\Documents\\ABExperiment\\MemoryStudy\\resources\\JPG\\africanelephant.jpg,C:\\Users\\Psychology\\Documents\\ABExperiment\\MemoryStudy\\resources\\JPG\\,0,31,31,31,,,,,,,23.746824700006982,None,1,0.39209340000525117,23.746824700006982,None,23.746824700006982,None,yt,001,2022-06-21_15h58.47.245,MemoryStudy,2022.1.4,59.95078040788951,
Mem,1,apron.jpg,P,P,JPG\,apron,C:\\Users\\Psychology\\Documents\\ABExperiment\\MemoryStudy\\resources\\JPG\\apron.jpg,C:\\Users\\Psychology\\Documents\\ABExperiment\\MemoryStudy\\resources\\JPG\\,0,32,32,32,,,,,,,24.164276399998926,None,1,0.3984404000075301,24.164276399998926,None,24.164276399998926,None,yt,001,2022-06-21_15h58.47.245,MemoryStudy,2022.1.4,59.95078040788951,
Mem,1,barnowl.jpg,P,P,JPG\,barnowl,C:\\Users\\Psychology\\Documents\\ABExperiment\\MemoryStudy\\resources\\JPG\\barnowl.jpg,C:\\Users\\Psychology\\Documents\\ABExperiment\\MemoryStudy\\resources\\JPG\\,0,33,33,33,,,,,,,24.665663199994015,None,1,0.38459980000334326,24.665663199994015,None,24.665663199994015,None,yt,001,2022-06-21_15h58.47.245,MemoryStudy,2022.1.4,59.95078040788951,
Mem,1,basketball01.jpg,P,P,JPG\,basketball01,C:\\Users\\Psychology\\Documents\\ABExperiment\\MemoryStudy\\resources\\JPG\\basketball01.jpg,C:\\Users\\Psychology\\Documents\\ABExperiment\\MemoryStudy\\resources\\JPG\\,0,34,34,34,,,,,,,25.083452799997758,None,1,0.4239440000092145,25.083452799997758,None,25.083452799997758,None,yt,001,2022-06-21_15h58.47.245,MemoryStudy,2022.1.4,59.95078040788951,
Mem,1,bat.jpg,P,P,JPG\,bat,C:\\Users\\Psychology\\Documents\\ABExperiment\\MemoryStudy\\resources\\JPG\\bat.jpg,C:\\Users\\Psychology\\Documents\\ABExperiment\\MemoryStudy\\resources\\JPG\\,0,35,35,35,,,,,,,25.533659499997157,None,1,0.42868409999937285,25.533659499997157,None,25.533659499997157,None,yt,001,2022-06-21_15h58.47.245,MemoryStudy,2022.1.4,59.95078040788951,
Mem,1,cloud.jpg,P,P,JPG\,cloud,C:\\Users\\Psychology\\Documents\\ABExperiment\\MemoryStudy\\resources\\JPG\\cloud.jpg,C:\\Users\\Psychology\\Documents\\ABExperiment\\MemoryStudy\\resources\\JPG\\,0,36,36,36,,,,,,,25.984394099999918,None,1,0.47437779999745544,25.984394099999918,None,25.984394099999918,None,yt,001,2022-06-21_15h58.47.245,MemoryStudy,2022.1.4,59.95078040788951,
Mem,1,crab01.jpg,P,P,JPG\,crab01,C:\\Users\\Psychology\\Documents\\ABExperiment\\MemoryStudy\\resources\\JPG\\crab01.jpg,C:\\Users\\Psychology\\Documents\\ABExperiment\\MemoryStudy\\resources\\JPG\\,0,37,37,37,,,,,,,26.484826200001407,None,1,0.4620790999906603,26.484826200001407,None,26.484826200001407,None,yt,001,2022-06-21_15h58.47.245,MemoryStudy,2022.1.4,59.95078040788951,
Mem,1,cupcake.jpg,P,P,JPG\,cupcake,C:\\Users\\Psychology\\Documents\\ABExperiment\\MemoryStudy\\resources\\JPG\\cupcake.jpg,C:\\Users\\Psychology\\Documents\\ABExperiment\\MemoryStudy\\resources\\JPG\\,0,38,38,38,,,,,,,26.96858840000641,None,1,0.44327610000618733,26.96858840000641,None,26.96858840000641,None,yt,001,2022-06-21_15h58.47.245,MemoryStudy,2022.1.4,59.95078040788951,
Mem,1,donut.jpg,P,P,JPG\,donut,C:\\Users\\Psychology\\Documents\\ABExperiment\\MemoryStudy\\resources\\JPG\\donut.jpg,C:\\Users\\Psychology\\Documents\\ABExperiment\\MemoryStudy\\resources\\JPG\\,0,39,39,39,,,,,,,27.435816400000476,None,1,0.5591211999999359,27.435816400000476,None,27.435816400000476,None,yt,001,2022-06-21_15h58.47.245,MemoryStudy,2022.1.4,59.95078040788951,
Mem,1,eiffeltower.jpg,P,P,JPG\,eiffeltower,C:\\Users\\Psychology\\Documents\\ABExperiment\\MemoryStudy\\resources\\JPG\\eiffeltower.jpg,C:\\Users\\Psychology\\Documents\\ABExperiment\\MemoryStudy\\resources\\JPG\\,0,40,40,40,,,,,,,28.019619099999545,None,1,0.47952019999502227,28.019619099999545,None,28.019619099999545,None,yt,001,2022-06-21_15h58.47.245,MemoryStudy,2022.1.4,59.95078040788951,
Mem,1,exitsign.jpg,P,P,JPG\,exitsign,C:\\Users\\Psychology\\Documents\\ABExperiment\\MemoryStudy\\resources\\JPG\\exitsign.jpg,C:\\Users\\Psychology\\Documents\\ABExperiment\\MemoryStudy\\resources\\JPG\\,0,41,41,41,,,,,,,28.52025169999979,None,1,0.46678160000010394,28.52025169999979,None,28.52025169999979,None,yt,001,2022-06-21_15h58.47.245,MemoryStudy,2022.1.4,59.95078040788951,
Mem,1,fortunecookie.jpg,P,P,JPG\,fortunecookie,C:\\Users\\Psychology\\Documents\\ABExperiment\\MemoryStudy\\resources\\JPG\\fortunecookie.jpg,C:\\Users\\Psychology\\Documents\\ABExperiment\\MemoryStudy\\resources\\JPG\\,0,42,42,42,,,,,,,29.02018809999572,None,1,0.4309298000007402,29.02018809999572,None,29.02018809999572,None,yt,001,2022-06-21_15h58.47.245,MemoryStudy,2022.1.4,59.95078040788951,
Mem,1,harmonica.jpg,P,P,JPG\,harmonica,C:\\Users\\Psychology\\Documents\\ABExperiment\\MemoryStudy\\resources\\JPG\\harmonica.jpg,C:\\Users\\Psychology\\Documents\\ABExperiment\\MemoryStudy\\resources\\JPG\\,0,43,43,43,,,,,,,29.47111169999698,None,1,0.4594123999995645,29.47111169999698,None,29.47111169999698,None,yt,001,2022-06-21_15h58.47.245,MemoryStudy,2022.1.4,59.95078040788951,
Mem,1,doghouse.jpg,P,P,JPG\,doghouse,C:\\Users\\Psychology\\Documents\\ABExperiment\\MemoryStudy\\resources\\JPG\\doghouse.jpg,C:\\Users\\Psychology\\Documents\\ABExperiment\\MemoryStudy\\resources\\JPG\\,0,44,44,44,,,,,,,29.954901100005372,None,1,0.44017109999549575,29.954901100005372,None,29.954901100005372,None,yt,001,2022-06-21_15h58.47.245,MemoryStudy,2022.1.4,59.95078040788951,
Mem,1,ladder.jpg,P,P,JPG\,ladder,C:\\Users\\Psychology\\Documents\\ABExperiment\\MemoryStudy\\resources\\JPG\\ladder.jpg,C:\\Users\\Psychology\\Documents\\ABExperiment\\MemoryStudy\\resources\\JPG\\,0,45,45,45,,,,,,,30.421506800004863,None,1,0.44579860000521876,30.421506800004863,None,30.421506800004863,None,yt,001,2022-06-21_15h58.47.245,MemoryStudy,2022.1.4,59.95078040788951,
Mem,1,lawnmower.jpg,P,P,JPG\,lawnmower,C:\\Users\\Psychology\\Documents\\ABExperiment\\MemoryStudy\\resources\\JPG\\lawnmower.jpg,C:\\Users\\Psychology\\Documents\\ABExperiment\\MemoryStudy\\resources\\JPG\\,0,46,46,46,,,,,,,30.88917369999399,None,1,0.4491394000069704,30.88917369999399,None,30.88917369999399,None,yt,001,2022-06-21_15h58.47.245,MemoryStudy,2022.1.4,59.95078040788951,
